time,ax,ay,az,atotal
0.000,1.03,1.15,1.96,2.49
0.010,1.60,-0.94,3.55,4.00
0.020,0.32,-0.15,0.91,0.97
0.030,-1.20,-1.06,0.51,1.68
0.040,-0.44,-0.71,-2.36,2.51
0.050,0.07,0.56,-1.19,1.32
0.060,1.38,1.44,1.04,2.25
0.071,1.00,1.10,0.42,1.55
0.081,0.07,0.53,0.53,0.75
0.091,-1.12,0.55,-0.18,1.26
0.101,-2.85,-0.64,-1.12,3.13
0.111,-1.19,-0.32,-1.23,1.74
0.121,0.01,-0.45,0.73,0.86
0.131,0.46,-0.27,0.62,0.82
0.141,1.13,0.18,0.53,1.26
0.151,0.26,0.07,-0.62,0.67
0.161,-0.87,-0.13,-0.61,1.08
0.172,-0.26,0.18,0.18,0.36
0.182,1.54,0.73,0.82,1.89
0.192,1.22,0.37,-0.13,1.28
0.202,-0.06,0.25,-0.37,0.45
0.212,-0.55,1.01,0.08,1.15
0.222,-1.88,0.07,-0.19,1.89
0.232,-2.33,-0.23,-0.72,2.45
0.242,-0.40,0.40,-0.21,0.60
0.252,0.52,-0.25,-0.16,0.59
0.262,0.94,-0.48,0.36,1.11
0.272,0.49,-0.29,0.61,0.84
0.282,-0.44,-0.00,-0.46,0.64
0.293,-0.62,0.00,-0.21,0.65
0.303,-0.29,-0.16,-0.13,0.36
0.313,1.05,0.57,0.65,1.36
0.323,1.48,0.91,-0.08,1.74
0.333,0.39,0.36,-0.40,0.66
0.343,-0.89,0.65,0.36,1.15
0.353,-2.86,0.09,-0.27,2.88
0.363,-1.66,0.40,-1.13,2.05
0.373,0.03,0.27,0.16,0.31
0.383,0.65,-0.25,-0.03,0.70
0.393,0.88,-0.45,0.21,1.01
0.403,0.35,-0.40,0.46,0.70
0.413,-0.56,-0.69,-0.45,0.99
0.424,-1.03,-0.67,-0.38,1.28
0.433,0.38,0.30,0.26,0.55
0.444,1.47,1.00,0.95,2.02
0.454,1.17,1.22,-0.36,1.72
0.464,0.27,1.01,-0.81,1.32
0.474,-0.77,0.97,-0.11,1.24
0.484,-2.92,-0.11,0.48,2.96
0.494,-1.76,-0.21,-1.05,2.06
0.504,-0.11,-0.64,0.08,0.66
0.514,0.85,0.08,0.20,0.88
0.524,1.00,-0.47,0.16,1.12
0.534,0.39,-0.11,-0.03,0.41
0.544,-0.57,-0.73,-0.35,0.99
0.554,-1.03,-0.59,-0.22,1.20
0.565,-0.53,0.12,0.41,0.69
0.575,0.73,0.27,0.40,0.87
0.585,1.84,1.52,0.04,2.38
0.595,1.21,1.03,-0.65,1.71
0.605,-0.78,0.53,-0.06,0.95
0.615,-2.47,0.95,0.26,2.66
0.625,-2.41,-0.33,-0.87,2.59
0.635,-0.68,-0.25,-0.26,0.77
0.645,0.66,-0.41,0.06,0.78
0.655,1.28,-0.87,0.07,1.55
0.666,0.61,0.05,0.74,0.96
0.675,-0.16,-0.88,-0.36,0.96
0.686,-0.66,-0.50,-0.64,1.04
0.696,-0.81,-0.10,0.22,0.85
0.706,0.73,0.96,0.92,1.51
0.716,1.44,1.04,-0.32,1.81
0.726,0.67,0.76,-0.87,1.33
0.736,-0.63,1.34,0.54,1.57
0.746,-2.42,0.56,-0.33,2.51
0.756,-1.37,-0.11,-0.70,1.54
0.766,-0.61,-0.20,0.08,0.65
0.776,0.18,-0.25,-0.38,0.49
0.786,0.91,-1.08,0.53,1.51
0.797,1.33,0.23,0.56,1.46
0.807,-1.24,-0.99,-0.13,1.60
0.817,-1.03,-1.02,-0.91,1.71
0.827,0.20,0.25,0.29,0.43
0.837,1.28,0.77,0.88,1.74
0.847,1.09,0.96,-0.46,1.52
0.857,0.20,1.09,-0.43,1.19
0.867,-0.91,1.90,0.54,2.18
0.877,-2.52,0.53,-0.93,2.74
0.887,-1.24,-0.13,-0.71,1.44
0.897,0.09,-0.26,0.10,0.29
0.907,0.72,-1.02,0.32,1.29
0.918,0.72,-0.67,0.49,1.10
0.928,-0.35,-0.71,0.00,0.79
0.938,-0.69,-0.64,-0.59,1.11
0.948,-0.15,0.40,-0.07,0.44
0.958,0.46,0.27,0.52,0.75
0.968,1.51,1.34,0.30,2.04
0.978,1.03,0.77,-0.46,1.37
0.988,-0.08,0.72,-0.20,0.76
0.998,-1.96,0.83,0.27,2.14
1.008,-2.64,-0.09,-0.70,2.73
1.018,-0.97,-0.01,-0.52,1.10
1.028,0.04,-0.32,0.00,0.32
1.039,0.99,-0.47,0.16,1.10
1.049,0.86,-0.45,0.51,1.10
1.059,-0.48,-0.91,-0.25,1.06
1.069,-0.91,-0.86,-0.51,1.35
1.079,0.06,0.38,0.30,0.49
1.089,1.49,0.96,1.13,2.10
1.099,1.26,1.45,-0.47,1.98
1.109,0.57,1.11,-0.68,1.42
1.119,-0.19,1.10,-0.20,1.13
1.129,-2.39,-0.14,0.34,2.42
1.139,-2.39,-0.65,-0.44,2.51
1.149,-0.73,-0.56,-0.51,1.06
1.160,0.82,0.19,0.45,0.95
1.169,0.81,-0.31,-0.04,0.87
1.180,0.26,-0.25,-0.07,0.37
1.190,-0.35,-0.12,0.14,0.39
1.200,-0.92,-0.40,-0.71,1.23
1.210,-0.71,-0.41,0.25,0.85
1.220,1.31,0.36,0.71,1.54
1.230,2.10,1.31,0.20,2.49
1.240,0.60,0.67,-0.76,1.18
1.250,-0.45,0.92,0.16,1.03
1.260,-2.34,0.48,-0.04,2.39
1.270,-2.74,-0.22,-0.55,2.80
1.280,-0.72,-0.11,-0.63,0.97
1.291,0.59,-0.48,0.12,0.77
1.300,1.33,-0.10,0.30,1.37
1.311,0.32,-0.74,0.49,0.95
1.321,-0.20,-0.10,-0.86,0.89
1.331,-1.05,-0.89,0.65,1.52
1.341,-0.24,0.60,-0.58,0.87
1.351,1.12,0.51,1.28,1.77
1.361,1.78,1.61,-0.74,2.51
1.371,0.16,0.37,-0.57,0.70
1.381,-0.22,0.91,0.31,0.99
1.391,-2.29,0.23,0.22,2.31
1.401,-2.37,-0.08,-0.51,2.42
1.411,-0.53,-0.38,-0.91,1.12
1.422,0.20,-0.07,0.18,0.27
1.432,0.83,-0.20,0.41,0.95
1.442,0.84,-0.63,0.11,1.06
1.452,-0.36,-0.16,0.06,0.40
1.462,-0.78,-0.68,-0.45,1.13
1.472,0.04,0.13,0.04,0.15
1.482,1.44,1.16,1.20,2.20
1.492,1.09,0.78,-0.83,1.58
1.502,0.17,0.99,-0.39,1.08
1.512,-0.47,1.16,0.50,1.35
1.523,-2.56,-0.93,-0.86,2.86
1.532,-1.89,0.09,0.07,1.89
1.543,-0.11,-0.28,-0.40,0.50
1.553,0.55,-0.46,-0.10,0.72
1.563,0.50,0.05,0.72,0.88
1.573,0.29,-0.48,-0.35,0.66
1.583,-0.56,0.15,-0.25,0.63
1.593,-0.57,-0.31,0.01,0.65
1.603,0.29,-0.07,0.06,0.30
1.613,1.45,1.04,1.01,2.05
1.623,1.46,0.84,-0.67,1.81
1.634,-0.11,0.48,-0.33,0.59
1.643,-1.17,0.79,0.31,1.44
1.654,-2.53,-0.18,-0.39,2.57
1.664,-1.81,0.03,-0.53,1.89
1.674,0.00,-0.28,-0.29,0.41
1.684,0.83,-0.21,0.14,0.86
1.694,0.68,-0.18,0.49,0.86
1.704,0.22,-0.47,-0.15,0.54
1.714,-0.81,-0.23,-0.18,0.86
1.724,-0.39,-0.39,-0.24,0.60
1.734,0.61,0.26,0.45,0.81
1.744,1.38,1.01,0.72,1.85
1.754,1.27,0.80,-0.84,1.72
1.764,-0.11,1.08,-0.09,1.09
1.775,-1.72,0.29,0.23,1.76
1.784,-2.40,-0.07,-0.50,2.46
1.795,-1.46,-0.10,-0.42,1.52
1.805,0.42,0.09,-0.06,0.43
1.815,0.71,-0.44,0.07,0.83
1.825,0.64,-0.44,0.33,0.84
1.835,0.06,-0.02,-0.01,0.07
1.845,-1.06,-0.78,-0.38,1.37
1.855,-1.08,-0.05,-0.07,1.08
1.865,0.86,0.10,0.48,0.99
1.875,2.08,1.51,0.67,2.66
1.885,1.00,1.01,-0.74,1.60
1.895,-0.22,0.54,-0.41,0.71
1.906,-1.39,0.46,0.05,1.47
1.916,-2.84,-0.49,0.23,2.89
1.926,-1.38,-0.31,-0.91,1.68
1.936,0.10,-0.26,0.11,0.30
1.946,1.14,0.39,0.07,1.21
1.956,0.71,-0.59,0.12,0.93
1.966,0.03,0.03,0.06,0.07
1.976,-0.71,-0.45,-0.27,0.88
1.986,-0.77,-0.52,-0.16,0.94
1.996,0.11,0.31,0.65,0.73
2.006,1.94,1.16,0.23,2.27
2.016,1.10,1.04,-0.34,1.56
2.027,-0.06,0.77,-0.56,0.96
2.037,-1.39,-0.05,0.36,1.44
2.047,-2.41,0.09,-0.22,2.42
2.057,-1.63,-0.56,-0.62,1.83
2.067,-0.20,0.10,-0.21,0.30
2.077,1.02,0.49,0.36,1.18
2.087,0.98,-0.49,-0.10,1.10
2.097,-0.11,-0.24,0.15,0.30
2.107,-0.53,-0.83,-0.28,1.02
2.117,-0.16,-0.07,-0.01,0.18
2.127,0.57,0.38,0.84,1.09
2.137,1.30,0.72,0.08,1.49
2.147,0.39,1.46,-0.79,1.70
2.158,-0.12,1.06,-0.17,1.08
2.168,-1.43,-0.51,-0.22,1.54
2.178,-2.03,-0.02,0.36,2.06
2.188,-0.92,-0.56,-0.56,1.22
2.198,0.03,-0.23,-0.45,0.50
2.208,0.17,-0.06,0.63,0.66
2.218,0.70,-0.03,-0.13,0.71
2.228,-0.18,0.36,-0.09,0.41
2.238,-0.46,-0.40,-0.25,0.65
2.248,-0.01,-0.25,-0.00,0.25
2.259,1.06,0.55,0.98,1.55
2.268,1.46,0.51,-0.32,1.58
2.279,0.06,0.48,-0.39,0.62
2.289,-0.68,0.92,0.19,1.16
2.299,-1.79,0.08,-0.21,1.80
2.309,-2.02,0.50,-0.46,2.13
2.319,-0.52,0.11,-0.41,0.67
2.329,0.23,-0.16,-0.42,0.51
2.339,0.75,-0.34,0.81,1.16
2.349,0.47,-0.63,0.00,0.79
2.359,-0.47,-0.16,0.07,0.50
2.369,-0.14,-0.13,-0.40,0.44
2.379,-0.06,0.01,-0.19,0.20
2.390,0.58,0.45,0.96,1.21
2.399,1.51,1.18,-0.09,1.92
2.410,0.27,0.76,-0.59,1.00
2.420,-0.92,0.09,0.07,0.93
2.430,-1.96,0.19,-0.19,1.97
2.440,-1.70,0.25,-0.25,1.74
2.450,-0.27,0.27,-0.24,0.45
2.460,0.40,-0.00,-0.06,0.41
2.470,0.53,-0.15,0.02,0.56
2.480,0.25,-0.50,0.04,0.56
2.490,-0.55,-0.81,-0.03,0.98
2.500,-0.90,-0.55,0.19,1.07
2.510,0.01,-0.30,-0.28,0.41
2.521,0.78,0.82,0.17,1.14
2.531,1.55,1.03,0.93,2.08
2.541,0.77,0.82,-1.14,1.60
2.551,-0.41,0.76,0.09,0.87
2.561,-1.76,0.61,0.26,1.88
2.571,-2.72,-0.29,-0.75,2.84
2.581,-0.87,-0.29,-0.42,1.01
2.591,0.66,0.02,0.16,0.68
2.601,1.16,-0.31,0.22,1.22
2.611,0.67,-0.37,0.37,0.85
2.621,-0.41,-0.55,-0.38,0.78
2.631,-1.01,-0.71,-0.33,1.28
2.642,-0.60,0.03,0.03,0.60
2.652,0.19,-0.45,0.47,0.68
2.662,2.09,1.69,0.65,2.76
2.672,1.25,1.14,-0.73,1.84
2.682,-0.46,0.31,-0.59,0.81
2.692,-1.74,1.67,0.62,2.49
2.702,-2.84,-0.21,-0.58,2.91
2.712,-1.10,-0.47,-0.89,1.49
2.722,0.52,0.30,0.55,0.81
2.732,1.06,-1.15,-0.32,1.60
2.742,0.57,-0.32,0.81,1.04
2.752,-0.23,-0.83,-0.00,0.86
2.762,-0.28,-0.73,-0.77,1.10
2.773,-0.47,0.17,0.23,0.55
2.783,0.39,0.41,0.93,1.09
2.793,1.24,1.31,-0.38,1.85
2.803,0.70,1.02,-0.65,1.40
2.813,-0.31,1.27,0.00,1.31
2.823,-2.30,0.73,0.21,2.42
2.833,-1.25,0.19,-0.68,1.44
2.843,-0.63,-0.72,-0.43,1.05
2.853,0.19,-0.22,0.37,0.47
2.863,0.73,-0.80,0.14,1.09
2.873,-0.02,-0.41,0.10,0.42
2.883,-0.44,-0.48,0.06,0.65
2.893,-0.58,-0.80,-0.65,1.18
2.904,0.14,0.42,0.32,0.55
2.914,1.22,0.70,0.79,1.61
2.924,1.54,1.01,-0.21,1.85
2.934,0.03,0.84,-0.56,1.01
2.944,-0.88,1.40,0.38,1.70
2.954,-2.67,0.69,-0.55,2.81
2.964,-1.75,-0.08,-0.79,1.92
2.974,0.10,-0.34,-0.07,0.36
2.984,0.81,-0.50,0.44,1.05
2.994,0.63,-0.99,0.24,1.20
3.004,-0.27,-0.75,0.05,0.80
3.015,-0.44,-0.40,-0.28,0.66
3.025,-0.40,-0.38,-0.46,0.71
3.035,0.17,0.50,0.61,0.81
3.045,1.79,1.47,0.82,2.46
3.055,1.10,1.00,-0.84,1.71
3.065,-0.10,0.89,-0.34,0.95
3.075,-0.93,1.01,0.36,1.42
3.085,-2.60,-0.12,-0.51,2.65
3.095,-1.45,-0.02,-0.43,1.51
3.105,0.06,-0.38,0.08,0.39
3.115,0.49,-0.50,-0.29,0.76
3.126,0.69,-0.33,0.71,1.04
3.135,0.02,-0.57,-0.25,0.62
3.145,-1.13,-0.76,-0.19,1.38
3.156,-0.43,-0.33,-0.37,0.66
3.166,0.55,0.42,0.37,0.79
3.176,1.56,1.19,1.17,2.28
3.186,1.17,0.84,-0.81,1.65
3.196,0.23,1.03,-0.67,1.25
3.206,-1.28,0.52,0.28,1.41
3.216,-2.77,-0.02,-0.18,2.77
3.226,-1.70,-0.49,-0.44,1.82
3.236,0.14,0.02,-0.14,0.20
3.247,0.99,-0.19,0.02,1.01
3.256,0.54,-0.66,0.14,0.87
3.267,0.07,-0.47,0.03,0.48
3.277,-0.69,-0.64,0.00,0.94
3.287,-1.12,-0.37,-0.31,1.23
3.297,0.74,0.23,0.49,0.92
3.307,2.16,1.87,0.75,2.95
3.317,0.88,0.70,-1.04,1.54
3.327,0.14,0.74,-0.28,0.80
3.337,-1.33,1.29,0.73,1.99
3.347,-3.13,-0.51,-0.66,3.24
3.357,-1.52,-0.26,-0.69,1.69
3.367,0.05,0.18,-0.10,0.21
3.378,0.89,-0.85,0.01,1.23
3.388,0.93,-0.24,0.70,1.19
3.398,-0.03,-0.69,0.09,0.70
3.408,-0.29,-0.35,-0.70,0.84
3.418,-0.36,-0.03,0.16,0.40
3.428,0.50,0.54,0.72,1.03
3.438,1.12,1.29,-0.16,1.72
3.448,1.08,1.50,-0.45,1.90
3.458,-0.33,0.82,-0.13,0.90
3.468,-1.85,-0.10,-0.08,1.85
3.478,-2.25,-0.12,-0.16,2.26
3.488,-1.00,-0.50,-0.68,1.31
3.499,0.22,-0.44,0.19,0.53
3.509,0.78,-0.07,0.34,0.85
3.519,0.63,-0.28,-0.11,0.70
3.529,-0.41,-0.12,0.16,0.45
3.539,-0.54,-0.21,-0.63,0.86
3.549,-0.28,-0.09,0.20,0.36
3.559,0.97,0.81,0.93,1.57
3.569,1.62,0.91,-0.27,1.87
3.579,0.46,1.03,-0.57,1.27
3.589,-0.60,0.63,0.15,0.88
3.599,-1.88,-0.33,-0.33,1.94
3.609,-2.36,-0.31,-0.05,2.38
3.619,-0.74,-0.06,-0.55,0.93
3.630,0.71,-0.05,-0.02,0.71
3.640,0.79,-0.06,0.26,0.83
3.650,0.24,-0.15,0.03,0.28
3.660,-0.43,-0.06,0.05,0.44
3.670,-0.45,-0.45,-0.48,0.79
3.680,-0.38,-0.41,0.01,0.56
3.690,1.25,0.42,1.10,1.72
3.700,1.93,1.23,-0.22,2.30
3.710,-0.11,0.53,-0.45,0.70
3.720,-0.37,0.87,-0.03,0.94
3.730,-1.93,0.12,-0.38,1.97
3.741,-2.29,0.44,0.07,2.33
3.751,-0.41,-0.17,-0.65,0.78
3.761,0.27,-0.62,-0.34,0.75
3.771,0.65,0.29,0.64,0.96
3.781,0.23,-1.14,-0.07,1.16
3.791,-0.65,-0.03,0.15,0.67
3.801,-0.38,-0.53,-0.32,0.72
3.811,0.05,-0.33,-0.26,0.42
3.821,0.90,1.17,1.06,1.82
3.831,1.61,0.70,-0.18,1.77
3.841,0.38,1.05,-0.78,1.36
3.852,-0.88,0.79,0.46,1.27
3.862,-2.29,0.24,-0.34,2.33
3.872,-2.35,-0.32,-0.78,2.50
3.882,0.06,-0.09,-0.06,0.13
3.892,0.92,-0.10,0.22,0.95
3.902,0.57,-0.89,0.08,1.06
3.912,0.12,-0.19,0.23,0.33
3.922,-0.71,-0.56,-0.40,0.99
3.932,-0.74,-0.24,-0.25,0.82
3.942,0.06,0.06,0.49,0.49
3.952,1.63,1.08,0.79,2.11
3.962,1.34,1.31,-0.73,2.01
3.972,0.27,0.73,-0.36,0.86
3.982,-0.66,0.97,0.23,1.20
3.993,-2.66,-0.51,-0.07,2.71
4.003,-2.05,-0.10,-0.40,2.09
4.013,-0.17,0.14,-0.58,0.62
4.023,0.49,-0.41,0.06,0.64
4.033,0.79,-0.21,0.37,0.89
4.043,0.49,-0.65,0.25,0.85
4.053,-0.31,0.15,-0.13,0.37
4.063,-0.68,-0.32,-0.36,0.83
4.073,-0.03,-0.35,0.12,0.38
4.083,1.37,1.56,0.93,2.27
4.093,1.36,1.62,-0.59,2.19
4.103,-0.15,0.05,-0.51,0.53
4.114,-0.84,0.50,0.04,0.98
4.124,-2.01,-0.72,0.15,2.13
4.134,-1.81,-0.35,-0.41,1.89
4.144,-0.39,0.08,-0.09,0.41
4.154,0.40,0.05,-0.22,0.46
4.164,0.95,0.47,-0.04,1.06
4.174,-0.03,-0.15,0.08,0.17
4.184,-0.37,-0.77,-0.08,0.86
4.194,-0.40,-0.39,0.10,0.56
4.204,0.28,-0.31,0.35,0.54
4.214,1.23,0.62,0.46,1.45
4.224,0.97,1.50,-0.22,1.80
4.234,-0.22,0.88,-0.73,1.17
4.245,-0.96,0.43,-0.03,1.05
4.255,-1.69,-0.20,0.14,1.70
4.265,-1.59,-0.58,-0.33,1.73
4.275,-0.34,-0.01,-0.43,0.55
4.285,0.09,-0.67,0.24,0.72
4.295,0.66,0.34,0.10,0.75
4.305,0.51,0.44,0.28,0.73
4.315,-0.15,-0.32,-0.67,0.76
4.325,-0.66,-0.12,0.06,0.67
4.335,0.33,0.00,0.37,0.49
4.345,1.26,0.47,0.55,1.45
4.356,0.78,0.57,-0.33,1.02
4.366,0.30,0.63,-0.31,0.76
4.376,-1.12,0.54,-0.02,1.25
4.386,-2.22,0.41,0.10,2.26
4.396,-1.65,0.10,-0.72,1.80
4.406,-0.02,0.10,-0.54,0.55
4.416,0.71,-0.30,0.28,0.82
4.426,0.45,-0.90,0.25,1.04
4.436,-0.26,-0.16,0.56,0.64
4.446,-0.26,-0.38,-0.46,0.65
4.456,-0.49,-0.06,-0.68,0.84
4.466,0.24,0.21,0.74,0.81
4.477,1.49,0.54,0.48,1.66
4.487,0.93,0.95,-0.41,1.39
4.497,-0.06,0.72,-0.14,0.73
4.507,-1.25,0.39,-0.08,1.31
4.517,-2.49,0.22,-0.37,2.52
4.527,-1.22,0.29,-0.41,1.32
4.537,0.27,0.23,-0.27,0.44
4.547,0.71,-0.48,0.39,0.94
4.557,0.61,-0.29,-0.15,0.69
4.567,-0.24,-0.82,0.15,0.86
4.577,-1.11,-0.34,-0.12,1.16
4.587,-0.71,-0.95,-0.26,1.22
4.597,0.90,0.73,0.16,1.17
4.608,1.78,1.11,1.08,2.36
4.618,1.15,0.69,-0.97,1.65
4.628,-0.14,0.94,-0.25,0.98
4.638,-1.48,0.76,0.34,1.70
4.648,-2.97,0.20,-0.43,3.01
4.658,-1.45,-0.08,-0.59,1.56
4.668,0.65,-0.16,-0.41,0.79
4.678,1.00,-0.35,0.49,1.17
4.688,0.52,-0.75,0.36,0.98
4.698,-0.11,-0.47,0.01,0.48
4.708,-0.41,-0.57,-0.41,0.82
4.718,-0.87,-0.46,-0.15,1.00
4.728,-0.46,-0.13,0.26,0.54
4.739,2.39,1.95,1.21,3.32
4.749,2.60,2.65,-0.58,3.75
4.759,1.48,2.37,-0.15,2.80
4.769,-0.23,3.03,0.93,3.18
4.779,-1.96,0.31,-0.89,2.17
4.789,-1.26,-0.88,-1.76,2.34
4.799,-1.06,-0.04,0.47,1.16
4.809,0.01,-1.73,1.22,2.12
4.819,0.24,-1.23,0.60,1.39
4.829,-1.45,0.07,0.39,1.51
4.839,-3.08,2.77,-1.44,4.39
4.849,-1.42,2.37,-2.36,3.64
4.860,-0.77,-0.33,-1.34,1.58
4.870,0.62,-0.28,2.42,2.51
4.880,1.14,-2.22,1.29,2.81
4.890,0.94,-1.66,-1.00,2.16
4.900,0.22,0.63,0.97,1.18
4.910,-1.14,0.94,-0.33,1.51
4.920,-1.77,-0.63,-2.79,3.36
4.930,-1.07,-1.14,-0.10,1.57
4.940,0.21,-0.47,1.64,1.72
4.950,0.82,-0.97,0.08,1.28
4.961,1.27,0.32,0.22,1.33
4.971,-0.14,0.33,-0.01,0.36
4.981,-0.83,-0.30,-1.34,1.60
4.991,0.01,0.15,-0.06,0.16
5.001,-0.39,-0.49,0.65,0.90
5.011,-0.16,-0.78,-0.20,0.82
5.021,-0.13,-1.08,0.04,1.09
5.031,-0.13,-0.57,-0.35,0.68
5.041,-0.52,-1.01,-0.27,1.17
5.051,-0.56,-0.70,-0.23,0.93
5.061,-0.61,-0.57,0.19,0.86
5.071,-0.27,-0.40,-0.11,0.49
5.081,0.03,0.01,-0.56,0.56
5.091,-0.08,-0.53,0.09,0.55
5.101,1.44,0.66,1.09,1.92
5.112,3.28,2.26,1.59,4.29
5.122,2.15,1.50,-1.54,3.04
5.132,1.74,2.10,-0.38,2.75
5.142,-0.04,1.15,0.75,1.38
5.152,-1.36,-0.03,-0.11,1.36
5.162,-2.29,-0.85,0.27,2.46
5.172,-3.80,0.12,-0.60,3.85
5.182,-2.68,0.70,-1.12,2.99
5.192,0.08,1.02,-0.87,1.34
5.202,0.52,0.46,0.31,0.76
5.213,1.31,-0.58,0.80,1.64
5.223,0.61,-0.43,0.40,0.85
5.233,-0.59,-0.45,-0.39,0.84
5.243,-0.35,-0.17,-0.47,0.61
5.253,0.55,0.48,1.00,1.24
5.263,1.04,0.57,-0.31,1.23
5.273,0.68,1.10,-0.31,1.33
5.283,-0.55,1.16,0.21,1.30
5.293,-2.54,0.36,-0.43,2.60
5.303,-2.00,-0.04,-0.60,2.09
5.313,-0.33,-0.46,-0.34,0.66
5.323,0.77,0.05,0.11,0.78
5.333,0.85,-0.65,0.65,1.25
5.344,0.43,-0.38,-0.09,0.58
5.354,-0.47,-0.69,-0.37,0.91
5.364,-1.28,-0.96,-0.23,1.62
5.374,-0.35,0.01,0.36,0.50
5.384,2.23,1.80,1.09,3.06
5.394,1.51,0.94,-0.82,1.96
5.404,0.31,1.11,-0.73,1.36
5.414,-0.58,1.30,0.67,1.57
5.424,-3.20,-0.14,-0.41,3.23
5.434,-2.10,-0.28,-0.68,2.23
5.444,-0.38,-0.64,-0.16,0.76
5.454,0.65,-0.53,-0.12,0.85
5.465,1.11,-0.44,0.84,1.46
5.475,0.41,-0.45,-0.07,0.62
5.485,-0.28,-0.17,-0.31,0.45
5.495,-0.61,-0.17,-0.31,0.70
5.505,0.14,0.69,0.61,0.93
5.515,1.32,1.60,0.50,2.13
5.525,0.89,1.06,-0.84,1.61
5.535,-0.06,0.83,-0.20,0.86
5.545,-1.27,-0.26,-0.03,1.29
5.555,-2.14,-0.42,-0.13,2.19
5.565,-1.45,-0.54,-0.05,1.55
5.575,-0.05,-0.54,-0.49,0.73
5.585,0.56,0.16,0.19,0.61
5.596,0.81,0.48,0.24,0.97
5.606,0.32,-0.03,-0.23,0.40
5.616,-0.88,-0.11,-0.33,0.95
5.626,-0.62,-0.45,0.07,0.76
5.636,0.39,-0.02,0.21,0.44
5.646,1.45,0.73,1.00,1.91
5.656,1.25,0.76,-0.85,1.69
5.666,0.16,0.54,-0.29,0.63
5.676,-1.02,0.79,0.18,1.30
5.686,-2.64,0.20,0.16,2.65
5.696,-2.00,-0.17,-1.15,2.31
5.706,0.06,0.28,0.01,0.28
5.717,1.15,0.82,1.45,2.03
5.727,-0.47,-0.96,1.25,1.65
5.737,-0.43,0.16,-0.35,0.58
5.747,0.01,0.67,0.34,0.75
5.757,0.11,-0.21,-1.40,1.42
5.767,0.72,1.05,0.11,1.28
5.777,0.93,-0.27,1.15,1.50
5.787,0.35,-0.30,-1.25,1.34
5.797,-0.27,1.47,0.25,1.51
5.807,-0.70,0.96,0.68,1.37
5.817,-1.58,0.59,-1.08,2.00
5.828,-0.72,0.66,-0.38,1.05
5.838,-0.61,-0.42,-0.16,0.76
5.848,0.02,-0.13,0.15,0.20
5.858,0.01,-0.26,-0.23,0.34
5.868,-0.00,-0.07,-0.23,0.24
5.878,-0.16,-0.22,-0.15,0.31
5.888,-0.01,-0.33,0.11,0.35
5.898,0.62,-0.46,0.86,1.16
5.908,0.59,-1.14,-0.15,1.29
5.918,0.21,-0.66,-1.43,1.59
5.928,-0.17,0.00,0.50,0.53
5.938,-1.30,0.00,-0.73,1.49
5.949,-1.51,-1.75,-0.61,2.39
5.959,-0.22,1.98,0.78,2.14
5.969,0.28,2.21,-3.00,3.73
5.979,0.26,4.78,-1.88,5.14
5.989,1.55,4.10,-0.90,4.47
5.999,-0.86,2.76,-1.52,3.26
6.009,-1.11,4.39,-1.51,4.77
6.019,0.44,-0.18,-1.21,1.30
6.029,-2.45,-9.52,13.49,16.69
6.039,1.25,1.33,-9.34,9.52
6.049,1.54,-2.36,4.24,5.09
6.059,-1.37,-6.21,7.56,9.88
6.069,-0.02,1.11,-4.66,4.79
6.080,-0.58,0.77,-1.10,1.46
6.090,-1.02,-1.35,-4.58,4.89
6.100,0.59,-0.95,-1.88,2.19
6.110,0.65,-0.03,5.11,5.15
6.120,0.18,1.11,-0.44,1.21
6.130,-0.16,0.16,1.74,1.75
6.140,-0.79,0.77,-0.30,1.14
6.150,-0.36,-0.94,-2.84,3.02
6.160,0.69,-0.13,0.11,0.71
6.170,1.82,1.59,1.00,2.62
6.180,0.67,-0.16,0.62,0.93
6.190,-0.25,0.50,0.43,0.70
6.201,-1.62,0.06,-0.23,1.64
6.211,-2.45,0.59,-1.42,2.89
6.221,-1.22,0.03,-0.70,1.41
6.231,0.00,0.21,0.17,0.27
6.241,1.16,0.17,0.80,1.42
6.251,1.18,-0.56,0.06,1.30
6.261,-0.18,-0.42,0.16,0.48
6.271,-0.84,-0.65,-0.47,1.16
6.281,-0.46,-0.29,-0.50,0.74
6.291,0.22,0.60,1.41,1.55
6.301,1.63,1.19,-0.26,2.03
6.311,0.85,1.12,-0.48,1.48
6.321,0.21,1.14,-0.33,1.21
6.332,-1.38,0.09,0.35,1.43
6.342,-2.83,-0.70,-0.66,2.99
6.352,-0.93,-0.45,-0.08,1.03
6.362,-0.06,-0.71,-0.76,1.04
6.372,0.20,-0.56,1.34,1.46
6.382,0.77,0.41,-0.38,0.95
6.392,-0.02,0.15,-0.10,0.19
6.402,-0.50,0.33,-0.28,0.66
6.412,-0.37,-0.41,-0.17,0.58
6.422,1.13,0.56,0.42,1.32
6.432,1.40,0.56,0.74,1.68
6.443,0.27,0.45,-0.82,0.97
6.453,-0.56,0.58,0.10,0.81
6.462,-1.43,0.51,-0.17,1.53
6.473,-2.19,-0.05,-0.39,2.23
6.483,-0.85,-0.02,-0.42,0.95
6.493,0.34,0.18,-0.06,0.39
6.503,0.78,-0.59,0.25,1.01
6.513,0.39,-0.09,0.27,0.48
6.523,-0.46,-0.52,-0.04,0.69
6.533,-0.47,-0.20,-0.56,0.76
6.543,-0.05,0.02,0.41,0.41
6.553,1.13,0.26,0.25,1.19
6.564,1.50,1.09,0.31,1.88
6.574,0.37,0.62,-0.56,0.91
6.584,-1.12,0.74,0.07,1.35
6.594,-2.35,0.66,-0.21,2.45
6.604,-1.87,-0.03,-0.52,1.94
6.614,-0.21,0.20,-0.60,0.67
6.624,0.57,-0.67,0.40,0.97
6.634,1.07,-0.27,0.09,1.10
6.644,0.35,-0.63,0.42,0.84
6.654,-0.99,-1.15,-0.22,1.54
6.664,-0.99,-0.03,-0.18,1.01
6.674,0.26,0.76,0.10,0.81
6.684,1.49,1.05,0.63,1.93
6.695,1.54,1.15,-0.51,1.99
6.705,0.43,0.71,-0.59,1.02
6.715,-0.91,0.27,0.41,1.03
6.725,-2.90,0.05,0.12,2.90
6.735,-2.10,-0.49,-0.62,2.25
6.745,-0.04,0.27,-0.50,0.57
6.755,0.71,0.53,0.26,0.93
6.765,0.83,-0.79,-0.10,1.15
6.775,0.24,-0.01,0.34,0.42
6.785,-0.37,-0.51,-0.09,0.64
6.795,-0.95,-1.11,-0.45,1.53
6.806,-0.23,-0.27,0.28,0.45
6.816,1.72,0.77,1.03,2.15
6.826,1.77,1.61,-0.41,2.43
6.836,0.06,0.75,-0.52,0.91
6.846,-0.96,1.25,-0.24,1.60
6.856,-2.88,0.47,-0.15,2.92
6.866,-2.17,-0.48,-0.59,2.30
6.876,-0.29,-0.63,0.03,0.69
6.886,0.88,-0.34,-0.00,0.94
6.896,1.56,-0.27,0.57,1.68
6.906,0.43,-0.07,0.03,0.44
6.916,-0.72,-0.64,-0.23,0.99
6.926,-0.59,-0.07,-0.60,0.84
6.937,-0.30,-0.02,0.57,0.65
6.947,0.99,0.78,0.57,1.39
6.956,1.37,0.77,-0.37,1.61
6.967,0.85,1.10,-0.40,1.45
6.977,-1.22,1.13,0.45,1.72
6.987,-2.71,0.41,-0.69,2.82
6.997,-1.68,-0.15,-0.84,1.89
7.007,-0.38,-0.60,0.19,0.74
7.017,0.48,-0.31,0.25,0.62
7.027,0.92,-0.86,0.21,1.28
7.037,0.36,-0.32,-0.02,0.48
7.047,-0.55,-0.39,0.12,0.68
7.057,-0.60,-0.65,-0.67,1.11
7.068,-0.05,0.39,0.32,0.51
7.078,1.10,0.74,0.81,1.55
7.088,1.27,0.96,-0.40,1.64
7.098,0.34,0.96,-0.43,1.10
7.108,-1.07,1.22,0.27,1.65
7.118,-2.59,0.63,-0.50,2.72
7.128,-1.54,-0.28,-0.64,1.69
7.138,0.29,-0.14,0.02,0.33
7.148,0.82,-0.87,0.05,1.20
7.158,0.56,-0.73,0.73,1.17
7.168,-0.27,-0.30,-0.14,0.42
7.178,-0.84,-0.80,-0.54,1.28
7.189,-0.28,0.13,-0.02,0.31
7.199,0.30,-0.01,0.27,0.41
7.209,1.99,1.37,0.73,2.52
7.219,1.26,1.19,-0.58,1.82
7.229,-0.39,0.61,-0.27,0.77
7.239,-1.23,1.79,0.41,2.21
7.249,-2.71,0.29,-0.65,2.80
7.259,-0.20,0.69,-0.23,0.76
7.269,3.54,3.53,1.68,5.27
7.279,1.87,1.19,-0.52,2.28
7.289,0.34,-1.62,-1.22,2.06
7.300,-0.56,-0.41,-0.01,0.70
7.309,-1.11,-1.19,0.31,1.66
7.320,-1.56,-1.23,0.40,2.03
7.330,-0.82,-0.51,1.17,1.52
7.340,0.78,-0.28,-0.01,0.83
7.350,1.13,0.20,-2.10,2.40
7.360,0.03,0.09,-1.03,1.04
7.370,-2.57,0.35,1.47,2.98
7.380,-3.78,1.57,0.50,4.12
7.390,-2.21,1.08,-0.45,2.50
7.400,-0.85,1.90,-1.64,2.65
7.410,-0.36,0.64,-1.70,1.85
7.420,0.05,-0.73,0.67,1.00
7.431,0.94,-1.08,1.44,2.03
7.441,0.73,-1.85,0.08,1.99
7.451,-0.22,-1.15,-0.05,1.17
7.461,-0.11,0.10,0.38,0.41
7.471,-0.34,-0.60,-1.31,1.48
7.481,-0.48,-0.73,-1.08,1.39
7.491,-0.31,-0.10,1.21,1.25
7.501,0.10,0.17,0.55,0.58
7.511,0.13,0.02,-0.40,0.42
7.521,-0.31,0.58,-0.58,0.87
7.531,-0.41,-0.21,-0.18,0.49
7.541,0.34,-0.45,-0.06,0.56
7.552,-0.27,-0.49,-0.04,0.56
7.562,-0.12,-0.87,0.39,0.96
7.572,0.00,-0.31,-0.50,0.59
7.582,-0.95,-1.47,-0.34,1.78
7.592,-0.68,-0.89,-0.01,1.11
7.602,1.74,0.69,2.19,2.88
7.612,4.83,2.94,1.68,5.90
7.622,2.20,1.99,-3.13,4.31
7.632,0.10,1.58,-0.67,1.72
7.642,-0.16,0.66,0.75,1.01
7.652,-2.61,-1.26,0.15,2.91
7.662,-2.64,-2.30,0.48,3.53
7.673,-0.03,-2.01,0.12,2.02
7.683,1.73,-0.49,-0.85,1.99
7.693,1.31,-0.25,0.51,1.43
7.703,1.01,-0.62,-0.00,1.19
7.713,-4.64,3.06,2.39,6.05
7.723,-1.97,2.76,-2.33,4.11
7.733,0.56,2.45,-2.49,3.54
7.743,0.94,3.05,0.41,3.22
7.753,1.40,-0.61,-0.56,1.63
7.763,0.11,-0.55,1.78,1.86
7.773,-2.59,-1.21,0.83,2.97
7.783,-1.91,-2.32,-1.23,3.25
7.793,-0.17,-0.18,0.12,0.28
7.804,-0.26,-0.44,-1.18,1.29
7.814,0.74,0.14,0.16,0.77
7.824,0.79,1.11,1.19,1.81
7.834,-0.55,-0.33,-0.49,0.80
7.844,-0.23,-0.15,0.06,0.27
7.854,1.27,1.21,0.47,1.82
7.864,0.92,0.51,-0.87,1.36
7.874,0.09,0.74,0.24,0.79
7.884,-0.36,0.56,0.38,0.76
7.894,-2.16,-0.13,-0.58,2.24
7.904,-2.04,-0.05,-0.40,2.08
7.914,-0.48,-0.44,-0.70,0.96
7.924,0.33,-0.47,0.33,0.66
7.935,1.06,0.11,0.46,1.17
7.945,0.46,-0.58,0.11,0.75
7.955,-0.82,0.19,-0.06,0.84
7.965,-0.20,0.21,-0.49,0.57
7.975,0.11,-0.15,0.22,0.29
7.985,1.16,0.87,0.42,1.51
7.995,1.46,0.44,-0.42,1.58
8.005,0.14,0.29,0.04,0.33
8.015,-1.44,0.18,0.46,1.53
8.025,-2.70,0.48,-0.48,2.79
8.036,-1.59,0.74,-0.71,1.89
8.046,0.14,0.35,-0.64,0.74
8.056,0.65,-0.43,0.18,0.80
8.066,0.81,-0.27,0.59,1.04
8.076,0.35,-0.80,0.23,0.90
8.086,-1.19,-1.15,-0.43,1.71
8.096,-0.75,-0.40,0.11,0.86
8.106,1.09,0.67,0.42,1.35
8.116,1.83,1.62,0.44,2.48
8.126,0.62,1.00,-0.83,1.43
8.136,-0.14,1.17,-0.39,1.24
8.146,-1.61,0.65,0.36,1.78
8.157,-2.83,-0.91,-0.38,2.99
8.167,-1.04,-0.57,-0.41,1.26
8.177,0.77,0.32,0.14,0.84
8.187,0.91,-0.22,0.03,0.94
8.197,0.24,-0.27,0.03,0.36
8.207,-0.27,0.06,0.22,0.35
8.217,-0.53,0.53,-0.39,0.84
8.227,-1.07,0.25,0.62,1.26
8.237,0.42,0.51,1.38,1.53
8.247,1.20,-0.31,0.51,1.34
8.257,1.46,0.73,0.38,1.68
8.267,0.48,1.40,-0.37,1.53
8.277,-1.08,0.81,-0.52,1.45
8.288,-2.08,0.83,-0.70,2.35
8.298,-1.11,-0.18,-1.40,1.79
8.308,-0.10,-0.99,-0.02,1.00
8.318,-0.33,1.57,0.75,1.77
8.328,0.01,0.63,-0.14,0.64
8.338,-0.05,0.81,-0.28,0.86
8.348,-0.15,0.67,-0.49,0.84
8.358,0.09,0.54,-0.06,0.56
8.368,0.76,0.87,0.67,1.34
8.378,1.19,0.48,0.24,1.30
8.388,0.62,0.43,-0.85,1.14
8.398,0.04,0.84,-0.06,0.84
8.409,-1.03,0.39,0.38,1.16
8.418,-1.78,0.84,-0.05,1.97
8.429,-1.73,-0.01,-1.15,2.07
8.439,-0.78,-0.22,-0.52,0.96
8.449,0.66,-0.32,0.39,0.83
8.459,1.22,-0.11,0.30,1.27
8.469,0.57,0.32,0.15,0.67
8.479,-0.36,0.27,-0.23,0.51
8.489,-1.15,0.05,-0.82,1.41
8.499,-0.55,-0.05,0.38,0.67
8.509,1.04,-0.38,1.03,1.51
8.519,1.54,-0.39,-0.00,1.59
8.529,0.77,0.26,-0.58,1.00
8.540,-0.40,0.92,0.48,1.11
8.550,-2.47,0.92,-0.03,2.63
8.560,-1.79,0.27,-1.75,2.52
8.570,-0.87,-0.68,0.04,1.10
8.580,0.74,-0.22,0.42,0.88
8.592,1.26,-0.30,0.29,1.32
8.600,0.72,0.24,0.25,0.79
8.610,-0.52,0.07,-0.49,0.72
8.620,-0.99,0.04,-0.36,1.05
8.630,-0.40,-0.27,0.39,0.62
8.640,0.49,-0.78,1.18,1.50
8.650,1.03,-1.11,-0.65,1.65
8.661,0.77,0.41,-0.19,0.89
8.671,-0.67,1.12,1.41,1.92
8.681,-2.16,-0.37,-1.95,2.94
8.691,-1.37,-1.51,-0.59,2.13
8.701,-1.08,-2.48,0.90,2.85
8.711,0.25,-1.32,-0.44,1.41
8.721,0.32,-0.02,0.70,0.78
8.731,-0.30,0.22,-1.58,1.63
8.741,0.22,-1.87,-0.40,1.92
8.751,-0.33,-0.55,1.13,1.30
8.761,1.57,0.98,-0.06,1.85
8.772,2.27,5.28,-2.35,6.21
8.782,2.22,4.93,-1.04,5.51
8.792,-2.27,2.50,-2.22,4.04
8.802,-2.19,4.79,-1.10,5.38
8.812,-3.11,4.11,-2.40,5.68
8.822,-0.32,-0.75,-1.60,1.80
8.832,-1.83,-9.53,13.49,16.62
8.842,1.40,0.22,-9.65,9.76
8.852,2.08,-1.15,2.34,3.34
8.862,-1.38,-4.88,8.51,9.91
8.872,0.28,-0.51,-1.55,1.66
8.882,-0.45,-0.92,-0.55,1.17
8.892,-0.35,-1.24,-3.27,3.52
8.903,0.90,0.21,-3.53,3.65
8.913,2.06,0.97,1.54,2.75
8.923,1.57,0.88,1.78,2.53
8.933,-0.32,0.08,0.86,0.92
8.943,-2.60,0.44,1.39,2.99
8.953,-2.68,-0.10,-2.91,3.96
8.963,-0.69,0.07,-1.32,1.49
8.973,1.10,-0.18,-0.46,1.20
8.983,1.59,-0.48,1.67,2.35
8.993,0.42,-0.29,0.95,1.08
9.003,-0.66,-0.90,0.27,1.15
9.013,-1.01,-0.24,-0.98,1.43
9.023,-0.40,-0.10,-0.60,0.73
9.034,1.42,1.32,0.69,2.06
9.044,1.60,0.69,-0.47,1.81
9.054,0.58,0.93,0.48,1.19
9.064,-1.83,1.48,0.57,2.42
9.074,-2.84,-0.07,-1.29,3.12
9.084,-1.19,-0.12,-1.13,1.64
9.094,-0.36,-0.15,0.96,1.04
9.104,0.89,-0.96,-0.62,1.45
9.114,1.44,-0.11,1.25,1.91
9.124,0.38,-0.22,-0.10,0.45
9.134,-1.04,-1.14,-0.70,1.69
9.144,-0.29,0.21,-0.15,0.39
9.155,0.57,0.51,1.23,1.45
9.165,1.03,0.85,-0.83,1.57
9.175,0.46,0.84,0.07,0.96
9.185,-0.07,1.85,0.06,1.85
9.195,-2.28,0.59,-0.27,2.37
9.205,-1.73,0.03,-0.62,1.84
9.215,-0.29,0.26,-0.22,0.44
9.225,0.47,-0.92,-0.15,1.04
9.235,0.97,-0.73,0.68,1.39
9.245,-0.41,-0.73,0.13,0.85
9.255,-0.49,-0.82,-0.41,1.04
9.265,-0.42,-0.26,-0.13,0.51
9.275,-0.28,0.28,0.24,0.46
9.286,1.82,1.32,0.61,2.33
9.296,1.80,1.31,-0.34,2.25
9.306,-0.01,0.82,-0.64,1.04
9.316,-1.03,1.02,0.37,1.50
9.326,-2.63,0.21,-0.07,2.64
9.336,-1.91,-0.11,-0.81,2.08
9.346,-0.33,-0.60,-0.12,0.69
9.356,0.53,-0.23,-0.19,0.61
9.366,0.94,-0.41,0.78,1.29
9.376,0.23,-0.88,-0.21,0.94
9.386,-0.53,-0.47,0.14,0.72
9.397,-0.25,0.28,-0.40,0.55
9.406,0.20,0.38,0.61,0.75
9.417,1.15,1.22,0.11,1.68
9.427,1.26,0.91,-0.55,1.64
9.437,0.24,0.90,-0.26,0.96
9.447,-1.36,-0.04,0.51,1.45
9.457,-2.74,-0.50,-0.50,2.83
9.467,-1.56,0.24,-0.14,1.59
9.477,0.55,0.29,-0.43,0.75
9.487,0.67,0.11,-0.01,0.68
9.497,0.66,-0.21,0.03,0.70
9.507,0.39,-0.45,0.27,0.65
9.518,-0.91,-0.48,-0.12,1.04
9.528,-0.88,-1.07,-0.02,1.38
9.538,0.28,0.34,0.25,0.51
9.548,2.07,1.27,0.70,2.53
9.558,1.33,1.33,-0.73,2.02
9.568,-0.27,1.03,-0.31,1.11
9.578,-1.35,0.77,0.25,1.58
9.588,-2.70,-0.09,-0.62,2.77
9.598,-1.89,-0.31,-0.14,1.92
9.608,-0.07,-0.46,-0.39,0.60
9.618,1.11,-0.67,0.27,1.33
9.629,1.02,0.09,0.37,1.09
9.638,0.14,-0.55,0.03,0.57
9.649,-0.57,-0.16,-0.57,0.82
9.659,-1.08,-0.25,0.16,1.12
9.669,-0.16,0.10,0.18,0.26
9.679,1.79,1.23,0.66,2.27
9.689,1.39,0.68,-0.92,1.80
9.699,0.57,1.15,0.22,1.30
9.709,-1.23,0.63,0.35,1.42
9.719,-2.91,0.08,-0.58,2.97
9.729,-1.88,0.01,-0.72,2.02
9.739,-0.09,-0.41,-0.35,0.55
9.749,0.73,-0.59,0.34,1.00
9.759,0.97,-0.70,0.38,1.26
9.770,0.25,-0.49,0.30,0.63
9.780,-0.56,-0.50,-0.49,0.90
9.790,-0.57,-0.04,-0.28,0.64
9.800,0.43,0.59,1.13,1.35
9.810,1.46,1.57,-0.31,2.16
9.820,1.01,1.56,-0.39,1.90
9.830,-0.19,1.46,-0.15,1.48
9.840,-1.40,-0.15,-0.26,1.43
9.850,-2.13,-0.47,-0.02,2.18
9.860,-1.33,-0.59,-0.45,1.52
9.870,0.17,-1.09,0.01,1.10
9.881,0.60,-0.09,0.36,0.71
9.891,0.05,-0.58,-0.08,0.59
9.901,0.14,0.78,0.14,0.81
9.911,-0.46,-0.04,-0.58,0.74
9.921,-0.38,-0.27,-0.10,0.48
9.931,1.43,1.17,1.11,2.16
9.941,1.56,0.45,-0.37,1.67
9.951,0.39,0.49,-0.36,0.72
9.961,-0.36,0.76,0.35,0.91
9.971,-2.16,0.00,-0.39,2.19
9.981,-2.44,0.35,-0.24,2.47
9.991,-0.79,-0.52,-0.74,1.20
10.001,0.49,0.08,-0.07,0.50
10.012,0.78,-0.16,0.60,1.00
10.022,0.68,-0.72,-0.08,0.99
10.032,-0.53,-0.26,0.31,0.66
10.042,-0.53,-0.27,-0.57,0.83
10.052,-0.13,-0.05,0.01,0.14
10.062,0.61,0.71,1.07,1.42
10.072,1.77,1.05,-0.80,2.21
10.082,0.67,1.17,-0.08,1.35
10.092,-0.76,0.64,0.15,1.01
10.102,-2.26,-0.37,-0.54,2.36
10.112,-1.76,0.49,0.25,1.84
10.123,-0.48,-0.29,-0.94,1.10
10.133,0.30,-0.29,0.16,0.45
10.143,0.88,-0.04,0.37,0.96
10.153,0.45,-0.44,-0.10,0.64
10.163,-0.57,-0.25,0.15,0.64
10.173,-0.88,-0.51,-0.36,1.08
10.183,0.14,0.01,0.02,0.15
10.193,1.46,1.17,1.05,2.15
10.203,1.61,1.31,-0.34,2.10
10.213,0.16,0.84,-0.73,1.12
10.223,-0.97,0.73,0.08,1.22
10.233,-2.37,-0.57,-0.06,2.44
10.243,-2.48,-0.41,-0.26,2.53
10.254,-0.28,-0.26,-0.30,0.49
10.264,1.11,0.29,0.06,1.15
10.274,0.81,-0.23,0.10,0.85
10.284,0.07,-0.46,-0.17,0.50
10.294,-0.31,-0.21,0.20,0.42
10.304,-0.80,-0.19,-0.11,0.83
10.314,-0.20,-0.08,-0.00,0.21
10.324,1.15,0.78,0.76,1.59
10.334,1.81,1.54,-0.44,2.42
10.344,0.39,0.69,-0.60,1.00
10.354,-0.60,0.51,0.25,0.83
10.364,-2.25,-0.28,-0.03,2.27
10.375,-2.15,-0.65,-0.43,2.28
10.385,-0.53,0.17,-0.35,0.66
10.395,0.14,-0.13,-0.07,0.20
10.405,0.94,-0.02,0.12,0.95
10.415,0.57,-0.16,0.30,0.66
10.425,-0.20,-0.45,-0.28,0.57
10.435,-0.40,-0.12,0.01,0.42
10.445,0.03,-0.27,0.25,0.37
10.455,0.75,0.58,0.46,1.05
10.465,0.90,1.37,-0.10,1.64
10.475,0.21,0.74,-0.78,1.10
10.485,-0.02,0.91,0.12,0.92
10.496,-1.86,-0.10,0.25,1.88
10.506,-2.26,-0.56,-0.57,2.39
10.516,-0.13,-0.11,-0.80,0.82
10.526,-0.20,-0.87,0.39,0.97
10.536,0.33,-0.41,0.51,0.73
10.546,0.69,0.64,0.12,0.95
10.556,-0.17,-0.39,-0.51,0.67
10.566,-0.32,0.42,0.32,0.62
10.576,0.83,0.67,-0.44,1.15
10.586,1.31,0.03,1.01,1.66
10.596,0.69,1.05,-0.69,1.43
10.606,-0.50,-0.14,0.01,0.52
10.617,-1.20,0.79,0.33,1.48
10.627,-2.16,0.53,-0.64,2.31
10.637,-1.25,-0.33,-0.58,1.42
10.647,-0.08,0.42,-0.22,0.48
10.657,0.59,-0.19,0.23,0.66
10.667,0.55,-0.80,0.10,0.98
10.677,-0.11,-0.30,0.57,0.66
10.687,-0.35,-0.24,-0.41,0.59
10.697,-0.29,-0.18,-0.65,0.74
10.707,0.17,0.33,0.92,0.99
10.717,1.50,1.06,0.05,1.84
10.727,1.14,0.52,-0.26,1.28
10.737,-0.33,0.62,-0.12,0.72
10.748,-1.90,-0.12,-0.18,1.91
10.758,-2.09,0.45,-0.25,2.15
10.768,-0.75,0.76,0.18,1.08
10.778,0.26,-0.20,-0.91,0.97
10.788,0.63,0.24,0.42,0.79
10.798,0.72,-0.35,0.01,0.80
10.808,-0.15,-0.48,0.07,0.51
10.818,-1.05,-0.52,0.17,1.18
10.828,-0.64,-0.81,-0.53,1.16
10.838,0.47,0.46,0.22,0.70
10.848,1.70,1.03,0.98,2.22
10.859,1.64,0.86,-0.65,1.97
10.869,-0.04,0.76,-0.42,0.87
10.879,-1.66,0.50,0.48,1.80
10.889,-3.03,0.34,-0.88,3.18
10.899,-1.77,0.11,-0.03,1.77
10.909,0.27,-0.19,-0.52,0.62
10.919,1.38,0.01,0.45,1.46
10.929,1.00,-0.59,0.20,1.17
10.939,-0.34,-0.58,0.29,0.73
10.949,-0.55,-0.48,-0.71,1.02
10.959,-0.96,-0.99,0.13,1.38
10.969,0.01,0.75,0.04,0.75
10.980,1.03,0.06,0.56,1.17
10.990,2.32,1.64,0.00,2.85
11.000,0.26,0.46,-0.59,0.79
11.010,-1.21,0.84,-0.05,1.47
11.020,-2.95,0.56,0.16,3.01
11.030,-2.11,-0.31,-1.14,2.42
11.040,-0.03,0.24,0.25,0.35
11.050,0.73,-0.62,-0.14,0.97
11.060,1.52,-0.18,0.24,1.55
11.070,0.28,-0.46,0.64,0.84
11.080,-0.88,-0.76,-0.65,1.33
11.090,-0.60,-0.50,-0.10,0.79
11.100,0.10,0.05,0.39,0.40
11.110,1.07,1.26,0.73,1.81
11.121,1.30,0.87,-0.91,1.81
11.131,0.55,1.36,-0.19,1.48
11.141,-2.05,0.93,0.26,2.26
11.151,-2.39,0.12,-0.77,2.51
11.161,-0.65,-0.07,-0.36,0.75
11.171,-0.18,-0.42,0.32,0.56
11.181,0.40,-0.72,-0.18,0.84
11.191,0.99,-0.37,0.50,1.17
11.201,0.04,-0.54,-0.26,0.60
11.211,-1.01,-0.52,-0.21,1.16
11.221,-0.27,-0.08,0.19,0.34
11.232,1.00,0.52,0.53,1.24
11.242,1.60,1.19,0.05,1.99
11.252,0.46,0.63,-0.74,1.08
11.262,-0.37,1.22,-0.02,1.28
11.272,-2.27,1.00,0.54,2.54
11.282,-2.28,-0.12,-1.20,2.58
11.292,-0.52,0.07,-0.30,0.60
11.302,0.56,-0.15,0.16,0.61
11.312,0.89,-0.81,0.06,1.21
11.322,0.56,-0.28,0.73,0.96
11.332,-0.43,-0.44,-0.15,0.64
11.342,-0.84,-0.54,-0.74,1.25
11.352,-0.27,0.00,-0.05,0.27
11.363,0.85,0.40,1.00,1.37
11.373,1.61,0.98,-0.21,1.90
11.383,0.45,0.63,-0.39,0.87
11.393,-0.63,0.94,0.06,1.13
11.403,-1.90,0.55,-0.08,1.98
11.413,-1.79,0.32,-0.38,1.86
11.423,-0.54,0.03,-0.58,0.79
11.433,0.26,-0.10,-0.07,0.29
11.443,0.80,-0.28,0.15,0.86
11.453,0.30,-0.73,0.42,0.89
11.463,-0.59,-0.68,-0.08,0.91
11.473,-0.61,-0.63,-0.34,0.94
11.484,0.08,0.22,-0.04,0.24
11.494,1.23,0.72,1.13,1.82
11.504,1.64,1.32,-0.60,2.19
11.514,0.33,0.95,-0.38,1.08
11.524,-0.64,0.97,0.02,1.16
11.534,-2.66,-0.06,-0.17,2.67
11.544,-2.48,-0.48,-0.37,2.55
11.554,-0.14,-0.17,-0.44,0.49
11.564,0.88,0.11,0.42,0.98
11.575,1.02,-0.32,-0.04,1.07
11.584,0.47,-0.38,0.07,0.61
11.594,-0.56,-0.15,-0.09,0.59
11.605,-1.26,-0.95,-0.31,1.61
11.615,-0.74,-0.37,-0.12,0.83
11.625,1.43,0.73,1.18,1.99
11.635,2.36,1.27,-0.17,2.69
11.645,0.57,0.77,-0.88,1.30
11.655,-0.68,1.32,0.37,1.53
11.665,-2.42,0.50,-0.28,2.49
11.675,-2.47,-0.16,-0.49,2.53
11.685,-0.80,-0.32,-0.57,1.03
11.695,0.68,-0.80,0.16,1.06
11.705,1.03,-0.46,0.50,1.23
11.715,0.30,-0.64,0.23,0.74
11.725,-0.30,-0.32,-0.19,0.48
11.735,-0.61,-0.17,-0.32,0.71
11.746,-0.00,0.17,0.15,0.23
11.756,1.38,1.46,0.79,2.16
11.766,1.35,1.34,-0.74,2.04
11.776,0.22,1.10,-0.25,1.15
11.786,-0.97,0.34,0.14,1.04
11.796,-2.15,0.02,-0.30,2.17
11.806,-1.91,-0.11,-0.22,1.93
11.816,-0.30,-0.87,-0.64,1.12
11.826,0.26,-0.48,0.17,0.57
11.836,0.86,-0.11,0.49,1.00
11.847,0.56,-0.38,-0.05,0.68
11.857,-0.78,-0.44,-0.11,0.91
11.867,-0.57,0.10,-0.30,0.65
11.877,0.68,0.49,0.41,0.93
11.887,1.53,1.34,0.52,2.10
11.897,0.75,0.90,-0.72,1.37
11.907,0.01,1.16,-0.00,1.16
11.917,-1.25,0.22,-0.17,1.28
11.927,-2.23,-0.74,-0.26,2.36
11.937,-1.60,-0.22,-0.27,1.64
11.947,0.14,-0.74,-0.25,0.80
11.957,0.48,0.03,0.25,0.54
11.968,0.14,-0.27,0.12,0.33
11.978,0.42,0.02,-0.17,0.46
11.988,-0.33,0.53,-0.17,0.65
11.998,-0.87,-0.74,-0.17,1.16
12.008,0.67,0.44,0.53,0.96
12.018,1.93,1.24,0.45,2.33
12.028,0.73,0.31,-0.69,1.05
12.038,-0.25,0.73,-0.02,0.78
12.048,-1.24,0.34,0.02,1.29
12.058,-2.16,-0.06,-0.21,2.17
12.068,-1.53,-0.14,-0.59,1.64
12.078,0.01,-0.28,-0.29,0.40
12.089,0.83,0.25,0.24,0.90
12.099,0.29,-0.49,0.19,0.60
12.109,-0.08,-0.30,0.01,0.31
12.119,-0.31,-0.26,-0.13,0.42
12.129,-0.24,-0.17,-0.55,0.62
12.139,0.75,0.41,1.06,1.36
12.149,1.42,0.95,0.27,1.73
12.159,0.59,0.82,-0.89,1.35
12.169,-0.20,0.96,0.05,0.98
12.179,-1.75,0.11,-0.07,1.75
12.189,-2.72,-0.30,-0.37,2.77
12.199,-0.75,0.11,-0.37,0.85
12.209,0.38,-0.46,-0.01,0.60
12.220,0.72,-0.21,-0.07,0.75
12.230,0.59,-0.63,0.35,0.93
12.240,-0.27,0.04,0.12,0.30
12.250,-0.84,-0.17,-0.37,0.94
12.260,-0.57,-0.18,-0.08,0.60
12.270,0.98,0.89,0.51,1.42
12.280,2.01,1.27,0.22,2.39
12.290,0.79,0.69,-0.69,1.26
12.300,-0.45,0.52,0.01,0.68
12.310,-1.83,-0.14,0.13,1.84
12.321,-2.73,-0.32,-0.23,2.76
12.330,-1.30,-0.37,-0.72,1.53
12.341,0.82,0.24,0.00,0.86
12.351,0.76,0.12,0.22,0.80
12.361,0.55,-0.48,-0.08,0.74
12.371,-0.11,0.22,0.36,0.43
12.381,-0.51,-0.32,-0.41,0.73
12.391,-0.36,-0.49,-0.21,0.64
12.401,0.33,0.67,1.00,1.24
12.411,1.81,1.26,-0.14,2.21
12.421,0.69,0.87,-0.69,1.31
12.431,-0.35,0.70,0.05,0.78
12.441,-1.71,-0.21,-0.14,1.73
12.451,-2.03,-0.20,-0.07,2.04
12.461,-1.15,-0.48,-0.50,1.34
12.472,-0.27,-0.46,-0.30,0.61
12.482,0.98,0.77,0.59,1.38
12.492,0.68,-0.30,-0.24,0.79
12.502,0.02,0.04,-0.00,0.04
12.512,-0.39,0.10,-0.14,0.43
12.522,-0.15,-0.64,-0.09,0.66
12.532,0.74,0.34,0.81,1.15
12.542,1.09,0.80,0.12,1.36
12.552,0.32,0.81,-0.81,1.19
12.562,-0.19,0.88,0.02,0.90
12.572,-1.60,0.07,-0.14,1.61
12.583,-2.52,-0.38,-0.20,2.56
12.593,-0.58,0.13,-0.54,0.80
12.603,0.02,-0.40,-0.01,0.40
12.613,0.50,-0.34,0.22,0.64
12.623,0.74,0.08,0.35,0.82
12.633,0.00,0.01,-0.18,0.18
12.643,-0.56,-0.23,-0.41,0.74
12.653,-0.08,0.02,0.04,0.09
12.663,0.97,0.45,0.73,1.29
12.673,1.39,0.51,-0.14,1.48
12.683,-0.09,0.05,-0.60,0.61
12.694,-0.64,0.93,0.30,1.17
12.704,-1.61,0.72,0.04,1.76
12.714,-1.80,0.31,-0.58,1.92
12.724,-0.60,0.37,-0.62,0.94
12.734,0.34,-0.20,-0.09,0.40
12.744,0.69,-0.17,0.30,0.77
12.754,0.13,-0.78,0.42,0.90
12.764,-0.33,-0.73,-0.18,0.82
12.774,-0.47,-0.36,-0.12,0.60
12.784,0.02,-0.02,-0.15,0.15
12.794,0.95,0.55,0.51,1.21
12.804,1.67,1.33,0.18,2.15
12.814,0.16,0.59,-0.69,0.93
12.825,-1.02,0.75,0.21,1.29
12.835,-2.55,0.44,-0.26,2.60
12.845,-2.07,0.06,-0.73,2.19
12.855,0.10,0.38,-0.01,0.39
12.865,0.96,-0.33,0.12,1.02
12.875,0.89,-0.53,0.12,1.04
12.885,0.07,-0.74,0.23,0.78
12.895,-0.95,-0.79,-0.30,1.27
12.905,-1.08,-0.50,-0.19,1.21
12.915,-0.14,-0.22,-0.21,0.34
12.925,1.56,0.93,0.95,2.05
12.935,2.23,1.13,0.24,2.51
12.945,0.46,0.67,-1.02,1.31
12.956,-0.95,0.97,0.31,1.39
12.966,-2.46,0.73,-0.31,2.58
12.976,-2.69,-0.09,-0.57,2.75
12.986,-0.59,-0.24,-0.65,0.91
12.996,1.00,-0.12,0.68,1.22
13.006,1.39,-0.30,0.04,1.43
13.016,0.38,-0.72,0.29,0.86
13.026,-0.54,-0.48,-0.17,0.74
13.036,-1.10,-0.75,-0.45,1.41
13.047,-0.49,0.15,0.19,0.54
13.056,0.90,0.63,0.62,1.27
13.067,2.33,1.58,0.05,2.81
13.077,0.59,0.59,-0.77,1.14
13.087,-0.76,0.63,0.03,0.99
13.097,-2.54,0.82,0.21,2.68
13.107,-2.29,-0.17,-0.67,2.40
13.117,-0.49,-0.35,-0.51,0.79
13.127,0.51,-0.17,0.29,0.61
13.137,1.55,-0.41,0.06,1.60
13.147,0.21,-0.62,0.26,0.71
13.157,-0.72,-0.56,0.05,0.92
13.167,-0.35,-0.68,-0.56,0.95
13.177,-0.24,0.09,0.41,0.49
13.188,1.00,1.11,0.75,1.67
13.198,1.33,0.62,-0.79,1.66
13.208,0.63,1.26,-0.19,1.42
13.218,-1.56,1.50,0.54,2.23
13.228,-2.62,0.25,-0.84,2.77
13.238,-0.99,0.20,-0.50,1.13
13.248,-0.26,-0.46,-0.13,0.54
13.258,0.54,-0.58,0.16,0.81
13.268,0.87,-0.69,0.60,1.26
13.278,0.11,-0.51,-0.19,0.55
13.288,-0.69,-0.36,-0.23,0.82
13.298,-0.53,-0.34,-0.20,0.66
13.308,0.41,0.24,0.28,0.55
13.319,1.44,1.05,0.78,1.95
13.329,0.84,0.79,-0.82,1.41
13.339,0.22,1.17,-0.07,1.19
13.349,-1.34,1.32,0.43,1.93
13.359,-2.70,0.02,-1.03,2.89
13.369,-1.24,-0.13,-0.39,1.31
13.379,0.27,-0.18,-0.14,0.36
13.389,0.79,-0.75,0.42,1.17
13.399,0.55,-0.63,0.40,0.92
13.409,-0.10,-0.53,-0.14,0.56
13.419,-0.51,-0.21,-0.36,0.66
13.429,-0.23,-0.01,-0.19,0.30
13.440,0.44,0.24,0.42,0.65
13.450,1.33,1.18,0.64,1.89
13.460,0.97,1.03,-0.51,1.50
13.470,-0.52,0.68,-0.48,0.98
13.480,-1.66,0.25,0.07,1.68
13.490,-2.11,0.25,-0.34,2.15
13.500,-0.98,0.20,0.05,1.00
13.510,0.35,-0.32,-0.41,0.63
13.520,0.75,-0.39,-0.09,0.85
13.530,0.48,-0.28,0.33,0.64
13.540,-0.46,-0.79,-0.06,0.92
13.550,-1.36,-1.00,-0.16,1.70
13.561,-0.10,0.12,-0.25,0.30
13.571,0.91,0.17,0.77,1.20
13.581,2.05,1.53,0.27,2.57
13.591,1.09,0.94,-0.46,1.51
13.601,-0.24,1.03,-0.57,1.20
13.611,-1.84,0.27,0.50,1.93
13.621,-2.78,0.23,-0.74,2.88
13.631,-1.62,-0.49,-0.63,1.80
13.641,0.65,-0.12,0.55,0.86
13.651,1.46,-0.01,-0.28,1.49
13.662,0.31,-0.94,0.52,1.12
13.671,-0.31,-0.07,0.10,0.33
13.682,-0.61,-0.91,-0.83,1.37
13.692,-0.92,-0.65,0.16,1.14
13.702,1.09,1.61,0.79,2.10
13.712,1.91,0.68,0.16,2.03
13.722,0.73,1.07,-1.13,1.72
13.732,-0.12,0.87,1.09,1.40
13.742,-1.36,1.32,-0.77,2.05
13.752,-3.08,-0.90,-0.31,3.22
13.762,-1.83,-0.64,-1.15,2.25
13.772,0.43,0.63,-0.32,0.83
13.782,1.13,-1.10,1.58,2.23
13.793,1.31,0.44,-0.83,1.61
13.803,-0.34,-0.89,1.42,1.71
13.813,-0.10,-0.17,-1.54,1.55
13.823,-0.79,-0.26,0.52,0.98
13.833,0.33,1.02,0.66,1.26
13.843,1.78,1.24,-0.51,2.23
13.853,0.76,1.23,0.06,1.45
13.863,-0.70,0.56,-0.43,1.00
13.873,-2.02,-0.12,0.02,2.03
13.883,-2.18,0.29,-0.28,2.22
13.893,-0.82,-1.18,-0.63,1.56
13.903,0.54,0.03,0.32,0.62
13.913,0.73,-0.14,0.21,0.78
13.923,0.43,-0.64,-0.21,0.80
13.934,-0.50,0.14,0.22,0.56
13.944,-0.53,-0.76,-0.44,1.03
13.954,0.20,0.39,0.16,0.46
13.964,0.99,1.14,1.02,1.82
13.974,1.31,0.93,-0.84,1.82
13.984,0.54,1.32,-0.18,1.43
13.994,-0.45,0.41,0.09,0.61
14.004,-2.01,-0.53,-0.48,2.13
14.014,-2.15,-0.08,0.30,2.17
14.024,-0.73,-0.52,-0.76,1.18
14.035,0.28,-0.35,0.02,0.45
14.045,0.50,-0.01,0.16,0.52
14.055,0.67,-0.30,0.09,0.74
14.065,-0.13,0.24,0.01,0.27
14.075,-0.63,-0.41,-0.14,0.77
14.085,-0.12,-0.01,-0.15,0.19
14.095,1.11,0.98,0.80,1.68
14.105,1.30,0.70,-0.37,1.53
14.115,0.12,0.62,-0.30,0.70
14.125,-0.54,0.74,0.19,0.93
14.135,-1.88,-0.28,-0.45,1.96
14.145,-2.10,0.29,0.01,2.12
14.155,-0.71,-0.57,-0.81,1.21
14.165,0.53,-0.52,0.12,0.75
14.175,0.55,0.05,0.33,0.65
14.186,0.10,-0.70,0.20,0.74
14.196,-0.20,0.27,-0.00,0.34
14.206,-0.48,-0.13,-0.49,0.70
14.216,0.35,0.14,0.02,0.38
14.226,1.66,1.10,0.97,2.22
14.236,1.00,0.52,-0.69,1.32
14.246,-0.01,0.50,-0.18,0.53
14.256,-1.15,0.59,0.32,1.33
14.266,-2.61,-0.23,-0.48,2.66
14.276,-1.69,0.11,-0.37,1.73
14.286,0.08,0.07,-0.53,0.54
14.296,0.61,-0.56,0.06,0.83
14.307,0.84,-0.09,0.40,0.93
14.317,0.06,-0.44,0.39,0.59
14.327,-0.50,-0.25,-0.51,0.76
14.337,-0.97,0.10,0.03,0.98
14.347,0.61,0.57,0.25,0.87
14.357,1.87,1.23,0.27,2.25
14.367,0.83,0.81,-0.54,1.28
14.377,-0.06,0.36,-0.22,0.42
14.387,-1.01,0.09,0.38,1.08
14.397,-2.62,-0.64,-0.16,2.70
14.407,-2.04,-0.60,-0.76,2.26
14.417,0.62,1.20,0.03,1.35
14.428,0.45,-0.26,-0.32,0.61
14.438,0.62,-0.31,0.12,0.71
14.448,0.35,0.43,0.61,0.82
14.458,-0.39,-0.60,-0.59,0.93
14.468,-0.57,-0.40,0.14,0.71
14.478,0.30,0.31,0.32,0.54
14.488,1.77,0.86,0.36,2.00
14.498,0.72,1.24,-0.50,1.52
14.508,-0.55,0.43,-0.29,0.76
14.518,-1.21,0.39,-0.00,1.27
14.529,-2.20,-0.25,-0.07,2.21
14.539,-1.36,-0.34,-0.64,1.54
14.549,0.07,0.03,-0.13,0.15
14.559,0.56,0.09,0.36,0.67
14.569,0.56,0.04,-0.20,0.60
14.579,0.01,-0.26,0.20,0.32
14.589,-0.24,-0.26,-0.50,0.61
14.599,-0.51,-0.57,0.03,0.76
14.609,0.47,0.13,0.80,0.94
14.619,1.58,0.73,0.18,1.75
14.629,0.49,0.89,-0.67,1.22
14.639,0.07,1.11,-0.01,1.11
14.649,-0.81,0.29,-0.28,0.91
14.659,-2.43,-0.18,0.12,2.43
14.669,-1.52,0.01,-0.62,1.64
14.680,-0.06,-0.23,-0.41,0.47
14.690,0.18,-0.11,0.45,0.50
14.700,0.89,-0.41,0.02,0.98
14.710,0.30,-0.05,0.19,0.36
14.720,-0.19,0.05,-0.11,0.22
14.730,-0.71,-0.57,-0.46,1.01
14.740,0.20,0.38,0.35,0.56
14.750,1.61,0.49,0.70,1.82
14.760,0.50,0.42,-0.69,0.95
14.771,-0.53,0.35,-0.01,0.64
14.780,-0.86,1.02,-0.04,1.34
14.791,-2.01,0.51,-0.17,2.08
14.801,-1.30,0.18,-0.73,1.50
14.811,-0.21,-0.27,-0.31,0.46
14.821,0.58,-0.26,0.29,0.70
14.831,0.68,-0.48,0.15,0.84
14.841,-0.17,-0.71,0.42,0.85
14.851,-0.44,-0.45,-0.35,0.72
14.861,-0.15,0.07,-0.27,0.32
14.871,0.36,0.31,0.44,0.64
14.881,1.74,0.77,0.37,1.94
14.891,0.78,0.67,-0.57,1.18
14.901,-0.48,0.55,-0.02,0.73
14.911,-1.85,0.69,0.16,1.98
14.922,-2.70,0.44,-0.80,2.85
14.932,-0.79,0.43,-0.32,0.96
14.942,0.54,0.00,-0.21,0.58
14.952,1.11,-0.30,0.30,1.19
14.962,0.72,-0.69,0.32,1.06
14.972,-0.65,-1.06,-0.25,1.27
14.982,-1.16,-0.64,0.07,1.32
14.992,-0.49,-0.24,-0.58,0.79
15.002,-0.13,-0.01,-0.11,0.17
15.012,0.43,0.05,0.25,0.50
15.022,0.45,-0.27,-0.12,0.54
15.033,-0.10,0.10,0.03,0.14
15.043,-1.47,0.52,0.09,1.56
15.053,-2.41,0.70,-0.67,2.59
15.063,-1.31,0.40,-1.34,1.92
15.073,-0.41,0.07,-0.02,0.42
15.083,0.44,-0.60,0.81,1.10
15.093,1.04,-0.91,0.22,1.40
15.103,0.47,-0.86,-0.15,0.99
15.113,1.22,0.65,1.27,1.88
15.123,2.34,1.70,-0.25,2.90
15.133,1.61,2.53,-0.01,3.00
15.143,0.55,1.72,-0.42,1.86
15.154,-1.51,0.19,-0.73,1.69
15.164,-2.84,0.57,0.73,2.99
15.174,-2.43,0.02,-0.31,2.45
15.184,-0.31,-0.66,-0.42,0.84
15.194,1.20,-0.46,-0.27,1.31
15.204,0.80,-0.91,0.18,1.22
15.214,0.53,-0.37,0.52,0.83
15.224,-0.37,-0.31,0.05,0.48
15.234,-0.94,-0.27,-0.55,1.12
15.244,-0.35,-0.04,-0.29,0.45
15.254,0.41,0.29,0.44,0.67
15.264,1.58,1.16,0.59,2.04
15.275,1.34,1.12,-0.46,1.81
15.285,0.18,0.67,-0.32,0.76
15.295,-1.56,0.36,0.06,1.61
15.305,-2.15,-0.70,-0.51,2.32
15.315,-0.96,-0.33,-0.00,1.02
15.325,0.08,-0.55,-0.13,0.57
15.335,0.75,-0.48,0.06,0.89
15.345,0.91,0.01,0.26,0.94
15.355,0.29,0.01,-0.03,0.29
15.365,-0.43,-0.42,-0.30,0.68
15.375,-0.39,-0.65,-0.12,0.77
15.385,0.30,-0.04,0.38,0.49
15.395,1.66,0.86,0.94,2.09
15.406,1.48,0.84,-0.80,1.89
15.416,0.03,-0.36,-0.60,0.70
15.426,-0.34,0.03,0.30,0.45
15.436,-0.97,-0.77,0.10,1.25
15.446,-1.09,-0.83,0.22,1.39
15.456,-3.81,2.18,0.98,4.50
15.466,-2.01,0.44,-2.98,3.62
15.476,-0.19,1.85,-1.30,2.27
15.486,0.70,1.49,1.07,1.97
15.496,2.78,-0.95,0.99,3.10
15.506,0.57,0.90,0.63,1.23
15.516,-0.71,-1.57,0.40,1.77
15.527,-0.08,-0.71,-1.58,1.73
15.537,-0.12,0.01,0.26,0.29
15.547,-0.79,0.31,0.44,0.95
15.557,-1.32,1.25,-0.25,1.84
15.567,-1.16,1.15,-0.38,1.68
15.577,-0.10,1.01,-0.87,1.34
15.587,0.65,-0.32,0.02,0.72
15.597,0.38,-0.36,0.12,0.54
15.607,-0.31,-1.09,0.51,1.24
15.617,-0.63,-1.46,-0.16,1.60
15.627,-0.94,-0.81,-0.13,1.25
15.637,0.63,0.05,0.55,0.84
15.648,2.31,1.97,0.66,3.11
15.658,0.85,1.30,-1.06,1.88
15.668,-0.01,0.88,-0.67,1.11
15.678,-0.97,1.45,0.63,1.85
15.688,-2.43,0.11,-0.07,2.43
15.698,-1.85,-1.16,-1.05,2.42
15.708,0.04,-0.15,0.01,0.16
15.718,0.90,-0.43,0.21,1.02
15.728,0.49,-0.96,0.10,1.09
15.738,-0.11,-0.03,0.46,0.48
15.748,-0.43,-0.66,-0.56,0.97
15.759,-0.35,-0.00,-0.32,0.48
15.769,0.54,0.66,1.04,1.34
15.778,1.75,1.33,-0.13,2.20
15.789,0.97,1.26,-0.49,1.66
15.799,-0.35,0.84,-0.20,0.93
15.809,-1.77,0.16,-0.05,1.78
15.819,-2.45,0.30,-0.10,2.47
15.829,-1.23,-0.85,-0.65,1.63
15.839,0.25,-0.66,-0.33,0.78
15.849,0.82,-0.02,0.75,1.11
15.859,0.51,-0.67,-0.05,0.84
15.869,-0.18,0.04,-0.03,0.19
15.879,-0.80,-0.07,-0.09,0.81
15.890,0.07,0.32,-0.55,0.65
15.899,1.00,0.72,1.15,1.68
15.910,1.35,1.14,-0.38,1.81
15.920,0.76,0.86,-0.51,1.25
15.930,-0.15,0.81,0.29,0.87
15.940,-2.10,-0.50,-0.37,2.19
15.950,-2.40,0.01,-0.16,2.41
15.960,-0.80,-0.17,-0.45,0.93
15.970,0.49,-0.39,-0.26,0.68
15.980,0.44,0.00,0.42,0.60
15.990,0.34,0.27,-0.36,0.57
16.000,0.15,1.93,-1.26,2.31
16.010,-0.58,4.20,-2.05,4.71
16.021,-0.22,3.35,-0.48,3.39
16.031,0.37,3.99,-1.38,4.24
16.041,0.40,4.33,-2.87,5.21
16.051,1.30,-0.96,1.30,2.07
16.061,-3.50,-9.10,10.12,14.05
16.071,1.31,2.70,-9.77,10.22
16.081,1.54,-2.32,7.21,7.73
16.091,-2.38,-5.54,4.64,7.61
16.101,-0.11,1.11,-1.47,1.85
16.111,-0.89,-2.69,-4.39,5.23
16.121,0.30,-0.23,-4.74,4.76
16.131,-0.12,-0.48,1.00,1.12
16.142,-0.64,-0.37,1.96,2.10
16.152,0.71,0.67,2.20,2.40
16.162,0.24,0.18,1.75,1.77
16.172,0.68,1.19,-1.01,1.71
16.182,1.48,1.03,-1.68,2.46
16.192,-0.17,0.21,-2.32,2.34
16.202,-0.47,0.49,1.12,1.31
16.212,-1.33,-0.41,1.08,1.76
16.222,-1.93,-0.31,0.62,2.05
16.232,-1.04,-0.00,-0.12,1.05
16.242,0.11,-0.47,-2.01,2.07
16.252,0.55,0.61,-0.10,0.83
16.262,0.42,-0.32,0.36,0.64
16.273,-0.16,0.04,0.69,0.71
16.283,-0.50,0.34,0.63,0.88
16.293,0.16,-0.43,-0.86,0.97
16.303,1.04,0.57,0.36,1.23
16.313,1.12,0.80,-0.58,1.49
16.323,0.58,0.07,-0.14,0.60
16.333,-0.18,0.63,0.95,1.15
16.343,-2.55,-0.43,-0.37,2.61
16.353,-2.11,0.57,-0.18,2.19
16.363,-0.46,0.53,-1.38,1.55
16.373,0.13,-0.39,-0.22,0.47
16.384,1.07,0.46,0.72,1.37
16.394,0.39,-0.89,0.36,1.04
16.404,-0.38,-0.05,0.13,0.41
16.414,-0.55,-0.46,-0.46,0.85
16.424,0.08,-0.15,0.07,0.19
16.434,1.28,1.24,0.50,1.85
16.444,1.07,0.66,-0.33,1.30
16.454,0.14,1.09,-0.36,1.15
16.464,-0.47,0.88,0.29,1.04
16.474,-2.01,-0.63,-0.26,2.12
16.484,-2.29,-0.15,-0.52,2.36
16.494,-0.30,-0.05,-0.26,0.40
16.505,0.44,0.20,-0.03,0.49
16.515,0.53,-0.18,0.33,0.65
16.525,0.38,-0.25,-0.18,0.49
16.535,0.04,-0.04,0.05,0.08
16.545,-0.95,-0.72,-0.17,1.20
16.555,-0.33,-0.49,-0.02,0.59
16.565,1.45,1.16,1.11,2.16
16.575,1.86,1.52,-0.47,2.45
16.585,0.20,0.51,-0.45,0.72
16.595,-0.68,1.10,-0.24,1.31
16.605,-2.52,-0.43,-0.07,2.56
16.615,-1.92,-0.18,-0.36,1.96
16.626,-0.06,-0.19,0.06,0.20
16.636,0.58,0.20,-0.28,0.68
16.646,0.81,-0.20,0.19,0.86
16.656,0.71,0.48,0.16,0.87
16.666,-1.13,-0.93,-0.34,1.50
16.676,-0.83,-0.28,-0.28,0.92
16.686,-0.13,-0.49,0.35,0.62
16.696,0.58,0.16,0.58,0.83
16.706,1.87,1.18,0.30,2.23
16.716,0.53,0.85,-0.99,1.41
16.726,-0.34,1.13,-0.13,1.19
16.736,-1.82,-0.26,-0.01,1.84
16.746,-2.40,-0.05,-0.40,2.44
16.757,-0.43,-0.14,-0.11,0.46
16.767,0.25,-0.48,-0.28,0.61
16.777,0.39,-0.48,0.39,0.73
16.787,0.82,-0.05,0.14,0.84
16.797,-0.19,0.24,-0.16,0.35
16.807,-0.96,-0.37,-0.24,1.06
16.817,-0.01,-0.07,-0.05,0.09
16.827,1.17,0.56,0.58,1.42
16.837,1.47,0.54,0.05,1.56
16.847,0.30,0.46,-0.39,0.68
16.857,-0.93,0.72,0.07,1.17
16.867,-2.21,0.81,0.03,2.35
16.878,-2.05,0.06,-1.06,2.30
16.888,0.02,0.17,-0.49,0.52
16.898,0.78,0.01,0.56,0.96
16.908,0.74,-1.08,-0.06,1.31
16.918,0.11,-0.15,0.81,0.83
16.928,-0.81,-0.41,-0.27,0.95
16.938,-0.68,-0.13,-0.85,1.09
16.948,0.13,0.45,0.41,0.62
16.958,1.67,0.57,0.49,1.83
16.968,1.63,0.89,-0.19,1.87
16.979,0.20,0.44,-0.13,0.50
16.989,-1.50,0.12,-0.04,1.50
16.999,-3.07,0.17,-0.24,3.09
17.009,-1.37,0.94,-0.70,1.81
17.019,0.14,-0.19,-0.47,0.52
17.029,0.92,-0.12,0.49,1.05
17.039,1.36,-0.30,0.07,1.39
17.049,-0.27,-1.11,0.34,1.19
17.059,-1.18,-0.19,-0.14,1.20
17.069,-0.97,-0.78,-0.42,1.32
17.079,0.24,0.45,0.04,0.51
17.089,1.86,1.53,0.93,2.59
17.099,1.72,0.51,-0.49,1.86
17.109,0.29,1.11,-0.53,1.26
17.119,-1.73,0.50,0.49,1.86
17.130,-2.90,0.29,-0.52,2.96
17.140,-1.74,0.02,-0.79,1.91
17.150,0.32,-0.37,-0.01,0.49
17.160,1.19,0.08,0.22,1.22
17.170,0.83,-0.62,0.40,1.11
17.180,0.22,-0.13,-0.01,0.26
17.190,-1.00,-0.97,-0.37,1.44
17.200,-1.03,-0.38,-0.22,1.12
17.210,-0.31,0.04,0.01,0.31
17.220,1.66,0.63,1.12,2.10
17.231,2.73,1.92,-0.20,3.34
17.241,0.37,0.64,-0.64,0.98
17.250,-1.79,0.70,0.03,1.92
17.261,-3.20,0.27,-0.61,3.27
17.271,-2.14,-0.36,-0.29,2.19
17.281,0.43,0.02,-0.11,0.44
17.291,1.39,-0.66,0.22,1.55
17.301,1.49,0.05,0.27,1.51
17.311,-0.22,-0.63,0.27,0.72
17.321,-1.31,-0.51,-0.65,1.54
17.331,-0.96,-0.26,-0.14,1.01
17.341,-0.19,-0.23,0.09,0.32
17.352,1.67,1.31,1.02,2.35
17.362,1.98,1.10,-0.43,2.30
17.372,0.41,1.02,-0.74,1.33
17.382,-1.61,1.24,0.78,2.18
17.392,-3.08,-0.25,-1.31,3.36
17.402,-1.44,-0.16,-0.47,1.52
17.412,0.29,-0.39,0.61,0.78
17.422,0.51,-1.13,-0.24,1.27
17.432,0.80,-0.46,0.48,1.05
17.442,0.31,-0.13,-0.22,0.40
17.452,-0.74,-0.64,-0.13,0.98
17.462,-0.66,0.09,-0.15,0.69
17.472,0.22,0.30,0.08,0.38
17.483,1.87,1.26,0.95,2.45
17.493,0.92,0.93,-0.87,1.58
17.503,-0.31,0.44,-0.50,0.73
17.513,-1.40,1.38,0.83,2.13
17.523,-2.60,-0.07,-1.07,2.81
17.533,-0.88,-0.31,-0.31,0.98
17.543,0.44,0.17,0.10,0.49
17.553,0.70,-1.06,-0.07,1.27
17.563,0.63,-0.23,0.46,0.81
17.573,-0.55,-0.54,0.08,0.78
17.583,-0.87,-0.50,-0.56,1.15
17.593,-0.26,0.30,0.07,0.40
17.603,0.97,0.46,0.61,1.23
17.614,1.99,1.35,-0.03,2.40
17.624,0.80,0.80,-0.59,1.28
17.634,-0.61,0.41,0.03,0.74
17.644,-2.25,0.64,0.25,2.35
17.654,-2.35,0.24,-0.55,2.43
17.664,-0.46,-0.56,-0.78,1.06
17.674,0.29,0.04,0.07,0.30
17.684,0.98,-0.55,0.23,1.15
17.694,0.73,-0.51,0.38,0.97
17.704,-0.83,-0.39,0.29,0.96
17.714,-0.85,-0.57,-0.78,1.29
17.724,-0.10,0.27,0.01,0.29
17.735,1.10,1.10,0.88,1.79
17.745,1.70,0.82,-0.33,1.91
17.755,0.66,0.86,-0.54,1.21
17.765,-0.55,0.64,0.38,0.92
17.775,-2.63,-0.26,-0.40,2.68
17.785,-2.38,-0.37,-0.29,2.42
17.795,-0.22,0.22,-0.44,0.54
17.805,0.69,-0.27,-0.02,0.74
17.815,1.10,0.35,0.46,1.24
17.825,0.36,-0.23,-0.04,0.43
17.835,-0.71,-0.46,-0.12,0.85
17.846,-1.07,-0.61,-0.39,1.30
17.856,-0.43,-0.51,0.02,0.67
17.866,2.16,1.25,1.40,2.86
17.876,1.88,1.16,-0.53,2.27
17.886,0.02,0.96,-0.68,1.18
17.896,-0.78,0.99,0.15,1.27
17.906,-2.56,0.22,-0.58,2.63
17.916,-2.26,-0.33,-0.21,2.29
17.926,-0.16,-0.50,-0.19,0.56
17.936,0.87,-0.32,0.04,0.93
17.946,1.14,-0.30,0.45,1.26
17.956,0.17,-0.21,-0.03,0.27
17.967,-0.95,-0.46,-0.16,1.06
17.977,-0.83,0.00,-0.58,1.01
17.987,-0.30,-0.14,0.39,0.51
17.997,1.18,1.04,0.82,1.77
18.007,1.62,0.75,-0.38,1.83
18.017,0.73,0.98,-0.47,1.31
18.027,-0.63,0.58,0.27,0.89
18.037,-2.36,0.08,-0.39,2.39
18.047,-2.34,0.14,-0.17,2.35
18.057,-0.53,-0.67,-0.66,1.08
18.067,0.53,-0.28,0.06,0.60
18.077,0.87,-0.21,0.16,0.91
18.088,0.56,-0.54,0.30,0.83
18.097,-0.18,0.04,0.02,0.18
18.108,-0.94,-0.47,-0.37,1.12
18.118,-0.24,0.14,-0.19,0.33
18.128,1.23,0.80,0.95,1.75
18.138,1.25,0.99,-0.28,1.62
18.148,0.41,0.77,-0.66,1.09
18.158,-0.46,0.53,0.45,0.83
18.168,-1.85,0.45,-0.28,1.92
18.178,-2.24,-0.43,-0.36,2.30
18.188,-0.39,-0.10,-0.54,0.67
18.198,0.34,-0.46,-0.09,0.58
18.209,0.56,-0.30,0.47,0.80
18.219,0.28,-0.08,0.03,0.30
18.229,-0.48,-0.42,0.07,0.64
18.239,-0.54,0.12,-0.55,0.78
18.249,0.28,-0.20,0.47,0.59
18.259,1.87,1.27,0.39,2.30
18.269,1.12,0.54,-0.44,1.32
18.279,-0.13,0.55,-0.08,0.57
18.289,-1.30,0.81,0.05,1.53
18.299,-2.25,0.10,-0.01,2.25
18.309,-1.64,-0.11,-1.11,1.99
18.319,0.02,-0.41,-0.15,0.43
18.329,0.92,-0.13,0.19,0.95
18.340,0.61,-0.46,0.46,0.89
18.350,0.01,-0.02,0.35,0.35
18.360,-0.79,-0.17,-0.57,0.99
18.370,-0.48,0.02,-0.47,0.67
18.380,0.54,0.25,0.79,0.99
18.390,1.38,0.89,0.08,1.65
18.400,1.09,0.74,-0.37,1.37
18.410,-0.05,0.44,0.07,0.45
18.420,-1.65,0.11,-0.18,1.66
18.430,-2.53,0.20,-0.09,2.54
18.441,-1.08,0.08,-0.74,1.31
18.451,0.14,0.04,-0.28,0.32
18.461,0.74,-0.30,0.33,0.86
18.471,0.83,-0.25,0.02,0.87
18.480,-0.31,-0.34,0.56,0.72
18.491,-0.99,-0.67,-0.81,1.44
18.501,-0.47,-0.36,0.17,0.61
18.511,1.42,1.14,0.85,2.01
18.521,1.78,1.05,-0.12,2.07
18.531,0.57,1.04,-0.53,1.30
18.541,-0.37,1.09,-0.18,1.16
18.551,-2.09,-0.41,-0.11,2.13
18.561,-2.49,-0.42,-0.11,2.52
18.571,-0.77,-0.06,-0.40,0.87
18.581,0.69,0.01,0.10,0.70
18.592,1.00,0.58,0.17,1.17
18.602,0.39,-0.47,-0.21,0.65
18.612,-0.72,0.05,-0.05,0.72
18.622,-0.63,-0.38,-0.24,0.78
18.632,-0.54,-0.82,-0.15,0.99
18.642,0.07,-0.07,0.74,0.75
18.652,2.19,1.12,0.44,2.50
18.662,1.30,1.32,-0.55,1.93
18.672,-0.41,0.48,-0.33,0.71
18.682,-1.66,0.51,-0.15,1.75
18.692,-2.52,-0.05,-0.40,2.55
18.703,-1.25,-0.46,-0.18,1.34
18.713,0.11,0.01,0.04,0.12
18.723,0.69,-0.39,0.03,0.80
18.733,1.35,0.32,0.22,1.41
18.743,-0.42,-0.46,-0.14,0.63
18.753,-0.89,-0.68,-0.24,1.15
18.763,-0.18,0.02,-0.20,0.27
18.773,0.44,-0.04,0.77,0.89
18.783,1.24,1.11,0.48,1.73
18.793,0.88,1.04,-0.95,1.66
18.803,-0.02,0.89,-0.10,0.90
18.813,-1.16,0.36,-0.26,1.25
18.824,-2.53,-0.71,0.22,2.64
18.834,-1.04,0.23,-0.58,1.21
18.844,0.11,-0.48,-0.22,0.54
18.854,0.37,-0.17,0.14,0.43
18.864,0.59,0.02,0.31,0.67
18.874,0.03,-0.16,-0.23,0.29
18.884,-0.61,0.06,-0.13,0.63
18.894,-0.27,-0.42,-0.04,0.50
18.904,1.27,0.54,0.43,1.45
18.914,1.62,0.56,0.52,1.79
18.924,0.20,0.18,-0.75,0.80
18.934,-0.93,0.84,0.07,1.26
18.944,-1.90,1.00,0.16,2.15
18.955,-2.19,-0.04,-0.98,2.40
18.965,-0.25,0.17,-0.45,0.54
18.975,0.74,-0.09,0.13,0.76
18.985,0.86,-0.85,0.26,1.24
18.995,0.17,-0.44,0.65,0.80
19.005,-0.73,-0.63,-0.20,0.99
19.015,-0.70,0.11,-0.62,0.94
19.025,-0.06,0.42,0.04,0.42
19.035,1.24,0.59,0.62,1.50
19.045,1.63,1.14,-0.01,1.99
19.055,0.26,0.21,-0.33,0.47
19.065,-1.04,0.44,-0.02,1.13
19.076,-2.87,0.23,0.06,2.88
19.086,-1.88,0.46,-0.99,2.18
19.096,0.22,0.03,0.01,0.23
19.106,0.95,0.41,-0.01,1.03
19.116,1.06,-0.58,0.20,1.22
19.126,0.23,-0.25,0.30,0.45
19.136,-1.13,-0.95,-0.34,1.52
19.146,-1.27,-0.88,-0.23,1.56
19.156,0.22,0.23,-0.09,0.33
19.166,1.42,0.64,1.07,1.89
19.176,2.30,1.74,-0.05,2.88
19.187,0.57,0.60,-0.70,1.08
19.197,-1.27,0.99,-0.21,1.63
19.207,-2.97,0.06,0.14,2.98
19.217,-2.39,0.13,-1.07,2.62
19.227,0.04,-0.34,0.24,0.42
19.237,1.48,0.08,0.07,1.48
19.247,0.92,-0.64,0.10,1.13
19.257,-0.04,-0.68,0.33,0.76
19.267,-0.43,-0.05,-0.36,0.56
19.277,-1.23,-0.93,-0.13,1.55
19.287,-0.57,0.46,-0.33,0.80
19.297,0.85,0.16,0.98,1.30
19.307,2.16,1.70,-0.09,2.75
19.317,1.07,0.74,-0.32,1.34
19.328,-0.78,0.30,-0.40,0.93
19.338,-2.36,0.53,0.12,2.42
19.348,-2.59,-0.08,-0.52,2.64
19.358,-0.57,0.03,-0.30,0.64
19.368,0.38,-0.40,0.02,0.55
19.378,1.35,-0.43,-0.35,1.46
19.388,0.95,-0.24,0.95,1.37
19.398,-0.46,-0.75,-0.39,0.96
19.408,-1.38,-0.87,0.10,1.63
19.418,-0.61,0.08,-0.58,0.85
19.428,0.63,0.03,1.01,1.19
19.439,2.12,2.03,-0.04,2.94
19.449,0.87,0.57,-0.82,1.32
19.459,-0.83,1.04,0.14,1.33
19.469,-2.32,1.48,-0.14,2.75
19.479,-1.96,-0.61,-0.59,2.14
19.489,-0.55,-0.28,-0.25,0.66
19.499,0.42,0.01,0.38,0.56
19.509,0.94,-1.33,-0.01,1.63
19.519,0.57,-0.17,0.21,0.63
19.529,-0.61,-0.55,-0.09,0.82
19.539,-0.90,-0.67,-0.55,1.25
19.549,0.23,0.41,0.37,0.60
19.560,1.58,0.68,1.03,2.00
19.570,0.94,1.05,-0.72,1.58
19.580,-0.15,0.75,-0.44,0.89
19.590,-0.38,1.79,0.68,1.95
19.600,-2.81,-0.00,-1.05,3.00
19.610,-1.54,0.00,-0.34,1.57
19.620,0.56,0.24,-0.05,0.61
19.630,0.54,-1.11,-0.06,1.24
19.640,0.82,-0.18,0.70,1.09
19.650,-0.52,-0.99,0.00,1.12
19.660,-0.88,-0.20,-0.54,1.05
19.670,-0.54,0.07,-0.15,0.57
19.680,0.47,0.10,0.48,0.68
19.691,2.00,1.51,0.41,2.54
19.701,1.17,0.64,-0.35,1.38
19.711,-0.26,0.64,-0.61,0.92
19.721,-1.75,0.42,0.47,1.86
19.731,-2.57,0.32,-0.40,2.62
19.741,-1.09,-0.33,-0.58,1.28
19.751,0.44,0.27,-0.13,0.53
19.761,0.98,-0.25,0.10,1.02
19.771,0.54,-0.55,0.31,0.84
19.781,-0.55,-0.43,-0.02,0.70
19.791,-1.26,-1.05,-0.27,1.66
19.802,0.10,0.39,0.02,0.40
19.812,1.30,0.60,0.73,1.60
19.822,1.57,1.14,0.10,1.94
19.832,0.68,0.99,-0.72,1.39
19.842,-0.30,0.84,-0.12,0.90
19.852,-2.13,0.01,0.16,2.13
19.862,-2.27,-0.30,-0.38,2.33
19.872,-0.76,-0.41,-0.48,0.99
19.882,0.56,0.06,0.19,0.59
19.892,0.81,0.04,-0.04,0.81
19.902,0.35,-0.21,0.19,0.45
19.912,-0.56,-0.09,-0.15,0.58
19.922,-0.79,-0.64,-0.37,1.09
19.933,-0.66,-0.10,0.00,0.67
19.943,0.73,-0.13,0.62,0.96
19.953,2.06,1.18,0.46,2.41
19.963,0.82,0.76,-0.54,1.24
19.973,-0.09,0.77,-0.37,0.86
19.983,-1.68,0.76,0.14,1.85
19.993,-2.82,0.16,-0.38,2.85
20.003,-1.04,-0.10,-0.71,1.27
20.013,0.11,-0.50,-0.05,0.52
20.023,1.02,-0.11,0.20,1.04
20.033,0.95,-0.61,0.53,1.25
20.043,-0.17,-0.31,-0.06,0.36
20.054,-0.91,-0.53,-0.41,1.13
20.064,-0.80,-0.30,-0.38,0.93
20.074,0.27,0.65,1.05,1.26
20.084,1.72,1.19,0.03,2.09
20.094,1.28,0.71,-0.84,1.69
20.104,0.18,0.82,0.27,0.89
20.114,-1.77,0.53,-0.06,1.85
20.124,-2.54,0.27,-0.07,2.55
20.134,-1.25,-0.18,-0.90,1.55
20.144,0.04,-0.44,-0.23,0.50
20.154,0.83,-0.01,0.42,0.93
20.164,0.71,-0.85,0.06,1.11
20.175,0.08,-0.22,0.56,0.61
20.185,-0.71,-0.48,-0.47,0.98
20.195,-0.40,-0.24,-0.37,0.59
20.205,0.81,0.96,0.90,1.54
20.215,1.33,0.86,-0.26,1.60
20.225,0.33,0.39,-0.81,0.96
20.235,0.52,1.70,0.84,1.97
20.245,-2.09,-0.40,-0.42,2.17
20.255,-2.27,0.19,-0.25,2.29
20.265,-0.74,0.10,-0.77,1.07
20.275,0.10,-1.13,-0.45,1.22
20.285,0.90,0.33,1.08,1.44
20.296,0.37,-0.77,0.05,0.86
20.306,-0.39,0.09,0.05,0.41
20.316,-0.86,0.23,-0.46,1.00
20.326,-0.28,-0.76,-0.40,0.90
20.336,1.62,1.65,0.95,2.50
20.346,1.45,0.49,-0.06,1.53
20.356,0.41,0.47,-0.53,0.81
20.366,-0.66,0.94,0.51,1.25
20.376,-2.40,-0.24,-0.63,2.49
20.386,-2.11,0.16,-0.46,2.17
20.396,-0.56,-0.39,-0.42,0.80
20.406,0.47,-0.49,-0.07,0.68
20.416,0.91,-0.07,0.60,1.09
20.427,0.55,-0.34,0.29,0.71
20.437,-0.64,-0.16,-0.03,0.66
20.447,-0.42,-0.29,0.77,0.93
20.457,-0.09,0.48,-1.16,1.26
20.467,1.26,0.93,-1.29,2.03
