time,ax,ay,az,atotal
0.000,-0.87,-0.03,0.35,0.94
0.010,0.23,-0.63,3.34,3.41
0.020,2.43,1.15,2.43,3.62
0.030,1.49,0.62,-1.20,2.02
0.040,0.36,0.78,-2.54,2.68
0.050,-0.89,1.19,-0.75,1.67
0.060,-3.26,-0.12,0.65,3.33
0.070,-1.87,0.03,0.57,1.95
0.081,0.06,-0.99,0.32,1.04
0.091,1.31,-0.32,-0.33,1.39
0.101,1.01,-0.77,-0.65,1.43
0.111,0.13,-0.73,-0.15,0.76
0.121,-0.24,-0.27,0.59,0.70
0.131,-0.64,-0.41,0.41,0.86
0.141,0.43,0.82,0.51,1.06
0.151,1.66,1.58,-0.32,2.31
0.161,1.14,1.26,-1.35,2.17
0.171,-0.19,0.51,0.40,0.68
0.181,-1.37,-0.20,0.45,1.46
0.191,-2.25,-0.20,-0.12,2.26
0.202,-1.00,-0.81,-0.22,1.30
0.212,0.03,-0.56,-0.69,0.89
0.222,0.43,-0.31,0.11,0.54
0.232,1.23,0.28,0.48,1.35
0.242,-0.01,-0.65,-0.16,0.67
0.252,-0.79,-0.39,-0.23,0.92
0.262,0.15,-0.08,0.11,0.20
0.272,1.03,0.49,0.63,1.31
0.282,1.14,1.38,-0.44,1.84
0.292,0.75,0.24,-0.10,0.80
0.302,0.24,1.22,0.30,1.28
0.312,-2.22,-0.60,-0.38,2.33
0.322,-2.57,-1.37,-0.17,2.92
0.333,-0.42,0.44,-0.40,0.73
0.343,0.64,-0.37,0.11,0.75
0.353,0.67,0.13,0.04,0.68
0.363,0.50,-0.17,0.12,0.54
0.373,0.01,0.06,-0.22,0.23
0.383,-0.69,-0.40,-0.21,0.83
0.393,-0.38,-1.00,0.09,1.07
0.403,1.22,0.17,0.87,1.51
0.413,1.91,1.15,0.21,2.24
0.423,0.57,0.55,-0.96,1.24
0.433,-0.34,1.02,0.20,1.09
0.443,-1.94,0.33,-0.22,1.98
0.453,-2.19,-0.31,-0.22,2.22
0.464,-0.69,-0.29,-0.35,0.82
0.474,0.41,-0.64,0.14,0.77
0.484,1.07,-0.10,0.06,1.08
0.494,0.31,-0.77,0.10,0.84
0.504,-0.38,-0.26,-0.02,0.46
0.514,-0.35,-0.26,-0.39,0.59
0.524,0.09,-0.17,0.30,0.35
0.534,1.34,0.84,0.92,1.83
0.544,1.40,0.69,-0.38,1.61
0.554,0.66,1.04,-0.75,1.45
0.564,-0.85,0.22,0.22,0.90
0.574,-2.50,-0.02,0.05,2.50
0.584,-2.05,-0.35,-0.20,2.09
0.595,0.08,-0.07,-0.36,0.38
0.605,0.59,-0.38,-0.11,0.71
0.615,0.84,-0.73,0.02,1.11
0.625,0.57,-0.45,0.22,0.76
0.635,-0.57,-0.29,0.07,0.64
0.645,-0.89,-0.29,-0.31,0.98
0.655,0.01,0.02,0.25,0.25
0.665,1.62,1.13,0.40,2.01
0.675,1.75,0.98,-0.12,2.01
0.685,0.64,0.50,-0.67,1.05
0.695,-0.63,0.21,0.48,0.82
0.705,-2.43,-0.27,0.04,2.45
0.716,-2.56,-0.42,-0.56,2.65
0.726,-0.19,-0.19,-0.43,0.51
0.736,0.77,0.11,0.19,0.80
0.746,0.94,-0.44,0.02,1.04
0.756,0.68,-0.34,0.17,0.78
0.766,-0.25,-0.16,0.07,0.30
0.776,-0.71,-0.91,-0.40,1.22
0.786,-0.39,0.20,0.34,0.55
0.796,1.45,1.06,0.79,1.96
0.806,1.70,1.03,-0.65,2.09
0.816,0.38,0.84,-0.44,1.03
0.826,-0.68,-0.10,0.16,0.70
0.836,-1.97,-0.26,-0.06,1.99
0.847,-1.78,-0.64,0.15,1.90
0.857,-0.72,-0.76,-0.73,1.28
0.867,0.48,0.29,0.23,0.61
0.877,1.15,0.47,0.13,1.25
0.887,0.32,-0.38,-0.42,0.65
0.897,-0.40,-0.10,0.13,0.43
0.907,0.05,-0.34,0.06,0.35
0.917,0.38,-0.55,0.26,0.72
0.927,0.67,0.20,0.73,1.01
0.937,1.08,0.83,-0.34,1.40
0.947,0.33,1.17,-0.74,1.42
0.958,-0.65,0.59,0.16,0.89
0.967,-1.83,-0.50,-0.13,1.91
0.978,-1.74,-0.18,-0.02,1.75
0.988,-0.16,-0.17,-0.40,0.46
0.998,0.23,-1.17,-0.12,1.20
1.008,0.92,-0.00,0.65,1.13
1.018,0.32,0.24,-0.23,0.46
1.028,-0.60,-0.38,-0.25,0.75
1.038,-0.15,0.09,-0.26,0.32
1.048,0.60,-0.42,0.50,0.89
1.058,1.45,0.87,0.62,1.80
1.068,0.67,0.05,-0.50,0.84
1.078,0.09,0.29,-0.45,0.54
1.089,-0.52,0.78,0.40,1.02
1.099,-1.81,-0.04,0.09,1.81
1.109,-1.48,0.47,-0.48,1.63
1.119,-0.23,0.12,-0.64,0.69
1.129,0.67,-0.07,-0.19,0.70
1.139,0.36,-0.98,0.57,1.19
1.149,0.29,-0.72,0.19,0.80
1.159,-0.23,-0.42,0.03,0.48
1.169,-0.38,-0.15,-0.34,0.53
1.179,0.36,-0.06,0.16,0.40
1.189,1.28,0.99,0.43,1.67
1.199,1.10,0.79,-0.11,1.36
1.210,0.04,0.44,-0.67,0.80
1.220,-1.30,0.41,0.58,1.49
1.230,-2.48,-0.19,-0.46,2.53
1.240,-0.83,0.05,-0.46,0.95
1.250,0.35,0.05,0.17,0.40
1.260,0.75,-0.58,-0.09,0.96
1.270,0.75,-0.09,0.12,0.77
1.280,-0.22,-0.80,0.03,0.83
1.290,-1.09,-0.77,-0.25,1.36
1.300,-0.68,-0.74,-0.08,1.01
1.310,0.84,0.40,0.37,1.00
1.320,1.83,1.00,0.80,2.23
1.330,1.44,0.64,-0.67,1.71
1.340,0.38,0.99,-0.68,1.26
1.350,-1.21,0.31,0.41,1.32
1.361,-3.12,0.16,0.01,3.13
1.371,-1.89,-0.67,-0.56,2.08
1.381,0.74,0.01,-0.09,0.75
1.391,1.16,0.14,0.24,1.19
1.401,0.96,-0.92,-0.21,1.34
1.411,0.41,-0.16,0.25,0.50
1.421,-0.79,-1.01,-0.24,1.30
1.431,-1.19,-0.50,-0.16,1.30
1.441,-0.11,0.34,0.32,0.48
1.451,2.05,1.21,0.84,2.52
1.461,1.85,1.51,-0.81,2.52
1.472,0.10,0.08,-0.46,0.48
1.482,-1.15,0.42,0.65,1.38
1.492,-2.79,-0.21,-0.32,2.82
1.502,-1.33,-1.19,-0.30,1.81
1.512,-0.06,0.10,-0.23,0.26
1.522,1.06,-0.26,0.16,1.10
1.532,1.25,-0.28,-0.18,1.29
1.542,-0.48,-0.43,0.53,0.84
1.552,-0.00,-0.09,-0.39,0.40
1.562,-0.46,-0.84,-0.13,0.97
1.572,0.28,0.49,0.73,0.92
1.582,1.54,0.89,0.22,1.79
1.593,0.92,0.37,-0.92,1.35
1.603,0.16,1.34,0.25,1.37
1.613,-2.18,0.20,0.18,2.20
1.623,-1.87,0.38,-0.51,1.98
1.633,-0.48,-0.16,-0.33,0.60
1.643,0.01,-0.65,-0.13,0.66
1.653,0.84,-0.35,0.32,0.96
1.663,0.84,-0.71,0.05,1.10
1.673,-0.37,-0.63,-0.06,0.73
1.683,-0.60,-0.38,-0.05,0.72
1.693,-0.34,-0.51,-0.27,0.67
1.703,0.99,0.65,0.72,1.39
1.713,1.65,1.00,0.24,1.94
1.724,0.60,0.30,-1.06,1.25
1.734,0.28,1.35,0.58,1.49
1.744,-2.06,0.59,0.22,2.15
1.754,-2.44,0.01,-1.06,2.66
1.764,-0.49,-0.11,-0.05,0.51
1.774,0.55,-0.22,-0.12,0.61
1.784,0.91,-0.90,0.39,1.34
1.794,0.58,-0.51,0.33,0.84
1.804,-0.55,-0.85,-0.39,1.09
1.814,-0.48,-0.51,-0.23,0.74
1.824,-0.07,0.01,0.20,0.21
1.834,0.98,0.51,0.55,1.24
1.844,1.65,1.17,0.26,2.04
1.855,0.50,0.57,-0.87,1.16
1.865,-0.69,0.65,0.12,0.96
1.875,-2.05,0.36,-0.03,2.08
1.885,-1.75,0.13,-0.26,1.78
1.895,-0.20,-0.07,0.07,0.23
1.905,0.53,-0.59,-0.56,0.97
1.915,0.82,-0.46,0.20,0.96
1.925,0.24,-0.67,0.33,0.78
1.935,-0.68,-0.85,-0.17,1.10
1.945,-0.87,-0.83,-0.17,1.22
1.955,0.18,-0.09,-0.01,0.20
1.965,1.43,0.74,0.77,1.78
1.976,2.05,1.27,0.26,2.43
1.986,0.59,0.59,-1.07,1.36
1.996,-0.35,0.76,0.25,0.87
2.006,-2.31,0.51,0.23,2.38
2.016,-2.71,-0.55,-0.91,2.91
2.026,-0.08,-0.59,0.58,0.84
2.036,0.83,0.50,-0.33,1.03
2.046,0.34,-1.50,-0.46,1.61
2.056,0.80,-0.24,0.71,1.09
2.066,0.02,-0.59,-0.16,0.61
2.076,-1.07,-1.02,-0.26,1.50
2.086,-0.21,0.65,0.25,0.73
2.097,1.73,0.56,0.93,2.04
2.107,1.64,1.38,-0.99,2.36
2.117,0.37,0.82,-0.20,0.92
2.127,-0.62,0.44,0.12,0.77
2.137,-1.99,0.31,0.30,2.04
2.147,-2.01,-0.22,-0.32,2.04
2.157,-0.65,-0.71,-0.93,1.34
2.167,0.80,0.16,0.42,0.92
2.177,0.74,-0.99,-0.02,1.23
2.187,0.42,-0.54,0.28,0.74
2.197,0.08,-0.39,0.27,0.48
2.207,-0.41,-0.72,-0.46,0.95
2.217,0.04,0.60,0.26,0.66
2.227,1.25,1.00,0.80,1.79
2.237,1.37,1.70,-0.87,2.35
2.248,-0.10,0.70,-0.08,0.71
2.258,-0.86,-0.10,-0.15,0.88
2.268,-2.15,0.01,0.05,2.15
2.278,-1.71,-0.77,-0.03,1.88
2.288,0.18,-0.73,-0.52,0.92
2.298,0.36,-0.00,0.39,0.53
2.308,0.85,-0.39,-0.27,0.97
2.318,0.52,0.00,0.07,0.53
2.328,-0.84,-0.47,0.14,0.97
2.338,-0.30,-0.77,-0.46,0.94
2.348,0.65,0.61,0.76,1.17
2.359,1.53,0.84,0.74,1.89
2.369,0.94,0.70,-1.40,1.83
2.379,0.43,1.16,0.51,1.34
2.389,-0.94,0.12,-0.17,0.97
2.399,-2.44,-0.47,-0.26,2.50
2.409,-1.50,-0.17,0.15,1.52
2.419,0.16,-0.51,-0.77,0.94
2.429,0.58,-0.18,0.41,0.74
2.439,0.56,-0.32,0.15,0.66
2.449,0.32,-0.24,-0.25,0.47
2.460,-0.44,-0.20,0.03,0.48
2.469,-0.19,-0.51,-0.08,0.54
2.480,0.28,-0.03,0.23,0.36
2.490,1.47,0.82,0.82,1.88
2.500,1.03,0.61,-0.67,1.37
2.510,-0.08,0.59,-0.23,0.64
2.520,-1.03,0.60,0.10,1.20
2.530,-2.20,-0.07,-0.18,2.21
2.540,-1.38,0.09,-0.16,1.39
2.550,-0.01,-0.84,-0.50,0.98
2.560,0.62,-0.43,0.03,0.75
2.570,0.73,-0.45,0.41,0.95
2.580,0.03,-0.69,0.11,0.70
2.590,-0.53,0.03,-0.11,0.54
2.600,-0.05,-0.28,-0.60,0.67
2.611,0.80,0.43,0.86,1.25
2.621,1.61,0.97,0.40,1.92
2.631,0.84,0.40,-0.73,1.18
2.641,-0.02,0.82,0.04,0.82
2.651,-1.68,0.12,0.19,1.69
2.661,-2.64,-0.23,-0.42,2.68
2.671,-0.78,0.02,-0.27,0.83
2.681,0.31,-0.46,-0.22,0.59
2.691,0.74,-0.43,-0.04,0.85
2.701,1.01,-0.42,0.49,1.19
2.711,-0.06,-0.55,0.09,0.56
2.721,-0.90,-0.13,-0.43,1.01
2.732,-0.41,-0.42,0.24,0.63
2.742,1.06,0.91,0.35,1.44
2.752,1.58,1.08,-0.04,1.92
2.762,1.11,0.44,-0.42,1.27
2.772,0.14,0.93,-0.19,0.96
2.782,-1.75,-0.43,0.85,1.99
2.792,-3.02,-0.71,-0.82,3.21
2.802,-0.88,-0.11,-0.45,1.00
2.812,0.65,0.58,0.19,0.89
2.822,0.73,-0.80,-0.38,1.15
2.832,1.04,-0.25,0.61,1.23
2.842,0.06,-0.24,0.07,0.26
2.852,-0.84,-0.59,-0.55,1.17
2.863,-0.38,0.07,0.41,0.56
2.873,1.13,0.55,0.58,1.38
2.883,1.63,1.28,-0.38,2.11
2.893,0.61,0.98,-0.26,1.18
2.903,-0.66,-0.03,-0.30,0.73
2.913,-1.76,-0.32,0.30,1.81
2.923,-1.83,-0.24,0.06,1.85
2.933,-0.63,-0.64,-0.65,1.11
2.943,0.16,0.16,0.07,0.24
2.953,0.95,0.27,0.05,0.99
2.963,0.56,-0.27,0.03,0.62
2.973,-0.26,-0.20,-0.12,0.35
2.984,-0.40,-0.83,-0.12,0.93
2.994,-0.17,-0.30,0.11,0.37
3.004,0.88,0.02,0.89,1.26
3.014,1.42,0.99,-0.15,1.74
3.024,0.68,1.12,-0.64,1.46
3.034,0.06,0.75,-0.16,0.77
3.044,-1.52,-0.33,0.08,1.56
3.054,-2.29,-0.38,0.15,2.32
3.064,-0.44,-0.16,-0.64,0.79
3.074,-0.17,-0.50,-0.03,0.53
3.084,0.64,-0.14,0.36,0.75
3.095,0.82,-0.13,-0.16,0.84
3.104,-0.03,0.37,0.11,0.39
3.115,-0.40,-0.54,-0.27,0.73
3.125,-0.28,-0.51,-0.14,0.59
3.135,1.12,0.38,0.85,1.46
3.145,1.20,0.01,0.09,1.21
3.155,0.09,0.54,-0.49,0.74
3.165,-0.33,0.67,-0.02,0.75
3.175,-1.13,0.65,-0.19,1.32
3.185,-2.02,0.15,0.09,2.03
3.195,-0.62,-0.23,-0.54,0.85
3.205,0.42,-0.05,-0.36,0.55
3.215,0.66,-0.68,0.48,1.06
3.225,0.33,-0.83,0.05,0.90
3.235,-0.46,-0.63,0.24,0.81
3.246,-0.13,0.18,-0.25,0.34
3.256,0.00,0.05,-0.30,0.30
3.266,0.83,0.25,0.66,1.08
3.276,1.69,0.88,0.07,1.90
3.286,0.58,0.31,-0.51,0.83
3.296,-0.70,0.28,0.31,0.82
3.306,-2.15,-0.01,-0.09,2.15
3.316,-1.85,0.44,-0.39,1.94
3.326,-0.11,0.34,-0.36,0.51
3.336,0.56,-0.42,-0.11,0.71
3.346,0.95,0.02,0.23,0.97
3.356,0.42,-0.85,0.17,0.96
3.367,-0.74,-0.77,-0.11,1.07
3.377,-1.11,-0.83,0.01,1.39
3.387,0.46,0.23,-0.09,0.53
3.397,1.15,0.90,0.85,1.69
3.407,1.66,0.90,-0.23,1.90
3.417,0.75,0.55,-0.89,1.29
3.427,-0.20,0.42,0.32,0.57
3.437,-2.39,-0.15,0.45,2.43
3.447,-2.76,-0.42,-0.48,2.83
3.457,-0.07,0.52,-0.38,0.65
3.467,0.82,0.12,-0.35,0.90
3.477,0.94,-0.65,0.23,1.16
3.487,0.62,-0.39,0.40,0.83
3.498,-0.23,-1.02,-0.15,1.05
3.508,-1.05,-0.81,-0.22,1.34
3.518,-0.17,-0.32,0.19,0.41
3.528,1.38,0.57,0.64,1.62
3.538,1.89,1.62,-0.07,2.49
3.548,0.45,0.55,-0.70,1.00
3.558,-0.85,1.11,-0.07,1.40
3.568,-2.49,0.59,0.41,2.59
3.578,-1.92,-0.38,-0.82,2.13
3.588,-0.23,-0.59,-0.13,0.65
3.598,0.78,-0.33,0.30,0.90
3.609,1.32,-0.62,-0.09,1.46
3.618,0.17,-0.63,0.39,0.76
3.629,-0.62,-0.62,-0.33,0.93
3.639,-0.49,-0.53,-0.18,0.74
3.649,-0.10,0.27,0.13,0.32
3.659,1.30,0.55,0.83,1.63
3.669,1.75,1.06,-0.44,2.09
3.679,0.81,1.16,-0.29,1.44
3.689,-1.26,0.75,0.16,1.48
3.699,-2.56,0.12,-0.34,2.58
3.709,-1.44,-0.31,-0.54,1.57
3.719,-0.20,-0.52,0.22,0.59
3.729,0.50,-0.72,0.21,0.90
3.739,1.02,-0.56,-0.29,1.20
3.750,0.43,-0.32,0.46,0.70
3.760,-0.28,-0.35,-0.34,0.57
3.770,-0.63,-0.44,-0.04,0.77
3.780,0.21,0.36,0.25,0.48
3.790,1.31,0.50,0.42,1.46
3.800,0.90,1.13,-0.02,1.45
3.810,0.25,0.45,-0.66,0.84
3.820,-0.77,1.13,0.19,1.38
3.830,-2.42,0.50,0.06,2.47
3.840,-1.21,-0.50,-0.68,1.47
3.850,0.22,-0.24,-0.10,0.34
3.860,0.55,-0.81,0.26,1.02
3.870,0.67,-0.76,0.11,1.02
3.881,-0.28,-0.74,0.18,0.81
3.891,-0.61,-0.35,-0.29,0.76
3.901,-0.22,-0.40,-0.31,0.56
3.911,0.64,0.11,0.52,0.83
3.921,1.79,1.03,0.70,2.18
3.931,1.04,0.63,-0.59,1.35
3.941,-0.06,0.62,-0.40,0.74
3.951,-1.09,0.96,0.37,1.50
3.961,-2.55,0.26,-0.26,2.57
3.971,-1.15,0.08,-0.28,1.19
3.981,-0.03,-0.63,-0.42,0.76
3.991,0.62,-0.47,0.10,0.78
4.001,0.84,-0.76,0.05,1.13
4.012,0.05,-0.76,0.69,1.02
4.022,-0.59,-0.26,-1.02,1.21
4.032,-0.44,-1.03,0.94,1.46
4.042,0.96,1.55,-0.64,1.93
4.052,1.57,-0.15,1.24,2.01
4.062,1.15,1.67,-1.32,2.42
4.072,0.01,0.10,0.29,0.30
4.082,-1.28,0.77,0.17,1.50
4.092,-2.78,-0.06,-0.27,2.80
4.102,-1.11,-0.05,-0.28,1.15
4.112,0.51,0.03,-0.40,0.65
4.123,0.55,-0.77,-0.11,0.95
4.133,0.74,-0.52,0.58,1.07
4.143,0.21,-1.11,0.12,1.14
4.153,-0.61,-0.62,-0.14,0.87
4.163,-0.58,-0.30,-0.03,0.65
4.173,0.90,0.57,0.35,1.12
4.183,1.91,1.40,0.41,2.40
4.193,0.77,1.12,-1.10,1.75
4.203,-0.32,0.87,0.46,1.04
4.213,-1.78,0.19,0.14,1.80
4.223,-2.43,-0.31,-0.57,2.51
4.233,-1.00,-0.51,-0.37,1.19
4.244,0.67,-0.42,-0.04,0.79
4.254,1.01,-0.57,0.33,1.20
4.264,0.34,-0.46,0.15,0.59
4.274,-0.08,-0.66,-0.10,0.68
4.284,-0.43,-0.31,-0.46,0.70
4.294,-0.15,0.01,0.60,0.62
4.304,1.23,0.98,0.53,1.66
4.314,1.52,1.58,-0.17,2.20
4.324,0.92,1.37,-0.53,1.73
4.334,-0.81,-0.14,-0.22,0.85
4.344,-1.80,-0.32,-0.05,1.83
4.354,-2.22,-0.31,0.52,2.30
4.364,-0.74,-0.88,-0.66,1.32
4.375,0.45,-0.16,-0.10,0.49
4.385,0.77,-0.09,0.01,0.77
4.395,0.85,-0.36,-0.21,0.94
4.405,0.03,0.26,0.62,0.68
4.415,-0.59,-0.53,-0.33,0.86
4.425,-0.35,-0.18,-0.19,0.44
4.435,0.89,0.51,0.77,1.28
4.445,1.17,0.62,0.02,1.32
4.455,0.51,0.59,-0.69,1.04
4.465,-0.02,0.45,0.26,0.52
4.475,-1.41,0.23,0.16,1.43
4.485,-2.32,-0.30,-0.24,2.35
4.495,-0.79,-0.48,-0.75,1.19
4.505,0.50,-0.13,0.04,0.52
4.516,0.60,-0.39,0.36,0.80
4.526,0.63,-0.06,0.25,0.68
4.536,-0.21,-0.22,-0.12,0.32
4.546,-0.44,-0.61,-0.61,0.97
4.556,-0.03,-0.45,0.15,0.47
4.566,1.24,0.43,1.06,1.69
4.576,1.44,0.59,-0.13,1.57
4.586,0.40,0.78,-0.42,0.97
4.596,-0.51,1.11,-0.20,1.24
4.606,-2.14,0.39,-0.10,2.18
4.616,-2.05,0.06,-0.25,2.06
4.627,-0.38,-0.92,-0.57,1.15
4.637,0.77,-0.37,0.42,0.95
4.647,0.92,-0.65,0.32,1.17
4.657,0.32,-0.82,-0.01,0.88
4.667,-0.71,0.43,-0.02,0.83
4.677,-0.43,-0.47,-0.45,0.78
4.687,0.29,0.13,0.10,0.33
4.697,1.58,0.91,1.27,2.22
4.707,1.39,0.44,-0.92,1.73
4.717,0.41,0.60,-0.24,0.77
4.727,-0.98,0.22,0.43,1.09
4.737,-2.74,-0.51,-0.32,2.80
4.748,-1.36,0.86,-0.06,1.61
4.758,-0.30,-0.46,-0.76,0.94
4.768,0.83,-0.19,0.02,0.86
4.778,1.19,-0.21,0.60,1.35
4.788,0.08,-0.88,-0.02,0.88
4.798,-0.69,-0.23,-0.02,0.73
4.808,-0.53,-0.48,-0.24,0.75
4.818,0.54,0.44,0.37,0.79
4.828,1.72,1.41,0.60,2.30
4.838,0.93,0.53,-0.79,1.33
4.848,0.18,0.88,-0.25,0.93
4.858,-1.24,-0.13,0.50,1.34
4.868,-2.24,-0.68,-0.28,2.35
4.879,-1.27,-0.25,-0.16,1.30
4.889,0.10,0.21,-0.25,0.34
4.899,0.42,0.11,-0.16,0.46
4.909,0.67,-0.34,0.21,0.78
4.919,0.22,-0.46,-0.11,0.52
4.929,-0.47,-0.41,0.11,0.63
4.939,-0.46,-0.90,0.07,1.02
4.949,0.39,-0.00,0.20,0.44
4.959,1.82,1.48,0.80,2.48
4.969,1.42,1.27,-0.80,2.07
4.979,-0.21,0.64,-0.38,0.78
4.989,-1.12,0.12,0.27,1.16
5.000,-2.10,-0.50,-0.20,2.17
5.010,-1.47,-0.60,0.10,1.59
5.020,0.05,0.03,-0.34,0.34
5.030,0.60,-0.11,-0.03,0.62
5.040,0.79,0.17,-0.09,0.82
5.050,0.34,-0.14,0.28,0.47
5.060,-0.55,-0.50,-0.33,0.81
5.070,-0.38,-0.44,0.08,0.59
5.080,0.19,-0.67,0.14,0.71
5.090,0.79,0.37,0.73,1.14
5.100,1.12,1.11,-0.03,1.58
5.110,0.25,0.72,-1.00,1.26
5.120,-0.21,0.57,0.19,0.64
5.131,-1.79,-0.05,0.31,1.82
5.141,-2.12,-0.66,-0.47,2.27
5.151,0.16,0.04,-0.30,0.34
5.161,0.13,-0.56,-0.02,0.58
5.171,0.48,-0.50,0.30,0.76
5.181,0.60,0.23,0.23,0.68
5.191,-0.33,-0.35,-0.42,0.64
5.201,-0.52,-0.41,-0.25,0.70
5.211,0.71,-0.04,0.68,0.98
5.221,1.58,0.60,0.39,1.73
5.231,0.58,0.43,-0.34,0.79
5.241,0.12,0.66,-0.33,0.75
5.251,-0.93,0.69,0.11,1.17
5.262,-2.34,0.23,-0.08,2.35
5.272,-1.41,-0.33,-0.51,1.54
5.282,0.21,0.10,-0.32,0.40
5.292,0.92,-0.21,0.36,1.01
5.302,0.62,-0.98,0.08,1.16
5.312,-0.19,0.08,0.27,0.35
5.322,-0.47,-0.41,-0.18,0.65
5.332,-0.33,0.31,-0.63,0.77
5.342,0.39,-0.18,0.66,0.79
5.352,1.84,0.59,0.38,1.97
5.362,1.54,0.42,-0.42,1.65
5.372,0.02,-0.03,0.13,0.13
5.382,-2.02,0.15,0.24,2.04
5.393,-2.64,1.15,-0.42,2.91
5.403,-0.30,0.52,-0.45,0.75
5.413,2.83,2.22,0.64,3.65
5.423,3.54,3.26,1.13,4.95
5.433,1.26,-0.62,-0.60,1.53
5.443,-0.77,-1.38,-1.56,2.21
5.453,-1.74,-0.47,0.30,1.82
5.463,-1.47,-1.30,0.66,2.07
5.473,-0.95,-1.17,1.40,2.05
5.483,0.51,-0.43,0.21,0.70
5.493,1.87,-0.13,-1.92,2.68
5.503,1.11,0.55,-1.65,2.06
5.514,-1.18,-0.15,1.41,1.85
5.524,-2.56,0.20,1.18,2.83
5.534,-2.28,0.05,-0.00,2.28
5.544,-0.53,0.52,-1.55,1.72
5.554,0.54,0.39,-1.12,1.30
5.564,1.05,-0.62,0.62,1.37
5.574,0.70,-0.69,0.73,1.23
5.584,-0.60,-1.33,0.48,1.53
5.594,-3.22,-0.19,-0.18,3.23
5.604,-3.90,1.86,-1.10,4.45
5.614,-0.00,2.12,-1.15,2.41
5.625,0.08,0.86,-0.71,1.12
5.635,0.51,-0.65,1.11,1.39
5.645,1.96,-1.68,1.03,2.78
5.655,0.83,-1.05,-0.39,1.40
5.665,-0.36,-0.58,0.61,0.92
5.675,-0.69,-0.17,-0.65,0.96
5.685,-0.60,0.24,-1.31,1.46
5.695,-0.90,-0.13,-0.03,0.91
5.705,-1.22,-1.26,0.05,1.76
5.715,0.38,-1.03,0.41,1.17
5.725,0.65,-0.93,0.24,1.16
5.735,0.03,-0.65,-0.59,0.87
5.746,-0.36,-0.61,-0.40,0.82
5.755,1.16,0.34,1.65,2.05
5.766,4.09,3.66,2.60,6.08
5.776,1.93,1.49,-3.75,4.47
5.786,1.07,1.25,-0.66,1.77
5.796,-0.07,1.76,2.07,2.72
5.806,-3.58,-2.39,0.01,4.31
5.816,-1.98,-1.47,-0.55,2.52
5.826,0.28,-1.34,0.48,1.45
5.836,1.14,-0.90,-1.22,1.90
5.846,1.51,-0.94,0.36,1.81
5.856,1.51,-0.88,1.01,2.02
5.866,0.85,-0.51,0.09,0.99
5.876,0.79,0.18,0.62,1.02
5.886,0.36,0.63,-0.95,1.19
5.897,-0.02,-0.35,-0.88,0.95
5.906,0.24,0.61,0.95,1.16
5.917,-1.32,0.17,0.38,1.38
5.927,-3.15,1.62,0.21,3.54
5.937,-3.26,1.94,-1.80,4.20
5.947,-0.89,1.26,-1.72,2.31
5.957,0.06,0.67,0.74,1.00
5.967,1.84,-0.35,1.43,2.36
5.977,1.44,-0.48,0.35,1.56
5.987,0.23,-1.12,-0.35,1.20
5.997,0.07,-0.69,-0.16,0.71
6.008,0.72,-0.02,0.25,0.77
6.018,0.09,-0.17,-0.31,0.36
6.028,-0.57,1.04,0.33,1.23
6.038,-1.87,1.60,-0.08,2.46
6.048,-1.48,0.59,-0.92,1.84
6.058,-0.18,-0.11,-0.31,0.37
6.068,0.41,-0.07,0.25,0.49
6.078,0.90,-0.77,0.22,1.20
6.088,0.40,-0.94,0.50,1.14
6.098,-0.72,-0.96,-0.25,1.23
6.108,-0.33,-0.83,-0.52,1.04
6.118,0.27,0.39,0.49,0.68
6.129,1.30,0.76,0.76,1.69
6.138,1.15,0.61,-0.68,1.47
6.149,0.60,0.93,-0.25,1.14
6.159,-0.82,0.48,0.24,0.99
6.169,-2.64,0.09,-0.24,2.66
6.179,-1.55,0.14,-0.13,1.57
6.189,0.06,-0.05,-0.48,0.48
6.199,0.66,-0.12,0.08,0.67
6.209,0.88,-0.43,0.16,1.00
6.219,0.25,-0.75,0.01,0.79
6.229,-0.57,-0.85,0.12,1.03
6.239,-0.93,-1.12,-0.39,1.51
6.249,0.37,-0.04,0.37,0.53
6.259,2.73,1.83,1.53,3.62
6.270,1.01,1.56,-1.35,2.30
6.280,-0.31,0.87,-0.51,1.05
6.290,-0.84,0.95,0.09,1.27
6.300,-2.79,-0.68,-0.09,2.87
6.310,-1.68,-0.82,0.05,1.87
6.320,0.41,-0.73,-0.18,0.86
6.330,1.12,-0.58,-0.15,1.27
6.340,0.92,0.05,0.46,1.03
6.350,-0.09,0.03,-0.10,0.14
6.360,-1.06,-0.14,-0.32,1.12
6.370,-0.52,-0.16,-0.16,0.56
6.380,0.36,-0.03,0.43,0.56
6.390,1.54,0.57,0.77,1.82
6.401,1.49,0.31,-0.73,1.69
6.411,0.29,0.58,-0.03,0.64
6.421,-0.71,0.13,0.92,1.17
6.431,-2.28,1.01,2.97,3.87
6.441,-0.86,0.01,-0.96,1.29
6.451,-0.90,0.11,-1.15,1.47
6.461,-0.13,-0.89,-0.08,0.90
6.471,0.90,-0.27,-1.73,1.97
6.481,0.06,-0.57,0.81,0.99
6.491,-0.38,1.25,1.03,1.66
6.501,-0.15,-0.63,0.63,0.91
6.511,0.45,0.30,-0.31,0.62
6.522,0.55,-1.13,-0.41,1.33
6.532,0.61,0.47,-1.42,1.61
6.542,-0.13,-0.31,1.45,1.49
6.552,-0.71,-0.05,0.42,0.82
6.562,-1.18,-0.43,-0.88,1.54
6.572,-0.53,-0.66,-1.98,2.15
6.582,0.25,-0.19,-1.13,1.17
6.592,0.20,-0.71,-0.23,0.77
6.602,-0.08,0.50,2.68,2.73
6.612,0.01,2.37,-2.12,3.18
6.622,-0.31,2.50,-2.61,3.63
6.633,1.50,4.91,-1.27,5.29
6.643,0.59,2.59,-0.61,2.73
6.652,0.14,4.47,-0.68,4.52
6.663,0.04,4.83,-1.85,5.17
6.673,-0.21,-6.96,3.60,7.85
6.683,-2.55,-5.09,7.72,9.60
6.693,1.51,2.31,-11.15,11.49
6.703,-2.21,-5.69,9.99,11.71
6.713,-0.19,-2.31,2.78,3.62
6.723,-0.01,-0.66,-3.99,4.04
6.733,-0.26,-2.47,-0.63,2.57
6.743,0.10,-0.38,-5.35,5.36
6.753,0.27,-1.47,0.99,1.80
6.763,1.21,0.03,3.57,3.77
6.773,2.00,0.64,1.41,2.53
6.784,0.82,0.69,0.88,1.39
6.794,0.05,2.27,-2.44,3.33
6.804,-0.19,0.81,-2.36,2.50
6.814,-2.07,0.53,0.56,2.21
6.824,-2.20,0.54,0.72,2.38
6.834,-0.75,-1.08,1.14,1.74
6.844,0.51,-0.20,-0.66,0.86
6.854,0.96,-1.47,-0.53,1.83
6.864,0.63,-0.81,-0.68,1.23
6.874,-0.40,-0.65,0.70,1.04
6.884,-0.89,-0.66,0.30,1.14
6.894,0.08,0.70,0.58,0.91
6.905,2.01,1.69,0.45,2.66
6.915,1.44,1.40,-1.12,2.30
6.925,0.33,0.95,-1.01,1.43
6.935,-0.33,0.57,0.76,1.01
6.945,-2.53,-1.23,0.39,2.84
6.955,-2.29,-0.75,-0.04,2.41
6.965,-0.38,-0.18,-0.42,0.60
6.975,1.06,0.17,-0.37,1.14
6.985,0.97,0.34,0.03,1.03
6.995,0.29,-0.59,0.05,0.66
7.005,-0.42,0.17,0.23,0.51
7.015,-0.77,-0.86,-0.27,1.19
7.026,-0.72,-0.90,0.11,1.16
7.035,0.86,0.21,0.60,1.07
7.046,2.38,1.24,0.25,2.70
7.056,1.00,1.21,-0.73,1.73
7.066,-0.41,0.58,0.01,0.71
7.076,-1.90,0.55,-0.07,1.98
7.086,-2.87,-0.60,-0.18,2.94
7.096,-0.66,-0.54,-0.78,1.16
7.106,0.43,-0.68,0.41,0.90
7.116,1.01,-0.52,0.23,1.16
7.126,1.24,0.02,0.17,1.25
7.136,-0.54,-0.41,-0.17,0.70
7.147,-0.87,-0.02,-0.29,0.92
7.157,0.14,0.05,-0.23,0.28
7.167,0.78,0.23,1.30,1.53
7.177,1.52,1.02,-0.18,1.84
7.187,0.64,0.48,-0.81,1.14
7.197,-0.34,0.60,0.14,0.70
7.207,-1.48,-0.47,-0.10,1.56
7.217,-2.15,-0.30,0.39,2.21
7.227,-0.66,0.18,-0.61,0.92
7.237,0.03,-0.74,-0.64,0.98
7.247,0.63,0.06,0.58,0.86
7.257,0.62,-0.24,0.29,0.73
7.267,-0.14,-0.21,-0.55,0.60
7.278,-0.55,-0.15,0.32,0.66
7.288,0.34,-0.28,0.03,0.44
7.298,1.72,0.68,0.47,1.91
7.308,1.17,0.59,-0.19,1.32
7.318,-0.34,0.23,-0.41,0.58
7.328,-0.70,0.97,0.18,1.21
7.338,-1.70,0.22,0.11,1.72
7.348,-1.88,-0.25,-0.65,2.01
7.358,0.08,-0.02,-0.30,0.31
7.368,0.55,-0.62,-0.14,0.84
7.378,0.71,-0.50,0.48,1.00
7.389,0.07,-0.64,0.41,0.76
7.399,-0.58,-0.38,-0.14,0.71
7.409,-0.26,0.20,-0.52,0.61
7.419,0.21,0.26,0.34,0.48
7.429,1.39,0.91,0.40,1.71
7.439,1.48,0.76,-0.25,1.68
7.449,0.29,0.25,-0.23,0.45
7.459,-1.14,0.41,0.25,1.24
7.469,-2.78,-0.18,-0.22,2.80
7.479,-1.44,-0.03,-0.47,1.51
7.489,0.23,0.23,-0.23,0.39
7.499,0.99,-0.23,0.16,1.03
7.509,0.88,-0.31,0.12,0.94
7.519,-0.16,-0.66,0.11,0.69
7.529,-0.66,-0.66,-0.24,0.96
7.540,-0.90,-0.90,-0.22,1.29
7.550,0.77,0.13,0.55,0.95
7.560,1.82,1.22,0.89,2.37
7.570,1.23,1.07,-0.50,1.71
7.580,0.24,1.03,-1.06,1.49
7.590,-1.14,0.49,0.32,1.28
7.600,-2.71,-0.06,0.05,2.71
7.610,-1.65,-0.56,-0.26,1.76
7.620,0.24,-0.43,-0.13,0.51
7.630,0.96,-0.14,0.13,0.98
7.640,1.03,-0.68,-0.16,1.25
7.650,0.07,0.03,0.29,0.30
7.661,-0.54,-0.46,-0.21,0.74
7.671,-0.91,-0.68,-0.24,1.16
7.681,-0.25,0.44,0.41,0.65
7.691,1.24,0.16,0.42,1.32
7.701,1.92,1.36,-0.22,2.36
7.711,0.82,0.49,-0.13,0.97
7.721,-0.93,0.19,-0.11,0.95
7.731,-2.58,0.51,-0.05,2.63
7.741,-2.23,-0.36,-0.44,2.30
7.751,-0.22,-0.21,-0.14,0.34
7.761,0.68,-0.52,0.10,0.86
7.771,1.53,-0.58,-0.14,1.65
7.782,0.54,-0.38,0.48,0.82
7.791,-0.63,-0.64,-0.10,0.90
7.802,-0.52,-0.62,-0.21,0.84
7.812,-0.47,-0.15,0.04,0.50
7.822,0.95,0.85,0.63,1.43
7.832,1.78,1.01,-0.08,2.05
7.842,0.61,0.84,-0.73,1.27
7.852,-1.09,0.74,0.28,1.35
7.862,-2.19,0.70,-0.01,2.29
7.872,-0.73,0.19,-0.41,0.86
7.882,2.96,3.00,2.13,4.73
7.892,2.32,2.80,-0.38,3.66
7.902,0.89,-1.07,-1.52,2.06
7.913,-0.26,-0.68,-1.04,1.27
7.923,-1.17,-1.32,0.48,1.83
7.933,-1.83,-2.15,1.08,3.02
7.943,-0.70,-0.47,1.78,1.97
7.953,0.61,-0.88,0.43,1.15
7.963,1.34,0.25,-3.20,3.48
7.973,-0.09,0.55,-1.67,1.76
7.983,-0.75,0.47,1.50,1.74
7.993,-2.08,0.16,1.34,2.48
8.003,-1.99,-0.10,0.39,2.03
8.013,-0.16,-0.04,-1.34,1.35
8.023,0.42,0.00,-1.56,1.62
8.034,0.31,-0.33,0.38,0.59
8.044,-0.17,-0.66,0.80,1.05
8.054,-3.47,0.05,0.92,3.59
8.064,-3.06,2.33,-0.36,3.86
8.074,0.37,1.39,-2.19,2.62
8.084,-0.43,0.06,-1.58,1.64
8.094,0.70,-1.05,1.64,2.07
8.104,1.68,-1.98,1.40,2.95
8.114,0.49,-1.25,-0.02,1.34
8.124,-0.03,0.23,0.28,0.36
8.134,-0.30,0.80,-0.87,1.22
8.144,-0.96,0.30,-1.31,1.65
8.154,-0.94,-1.08,-0.87,1.68
8.165,0.01,-1.50,0.96,1.78
8.175,0.13,-1.54,1.25,1.99
8.185,0.30,-0.77,-0.19,0.84
8.195,0.06,-0.08,-0.82,0.82
8.205,-0.22,0.02,-0.83,0.86
8.215,1.07,-0.32,1.86,2.17
8.225,5.33,3.26,2.19,6.62
8.235,1.79,2.05,-2.55,3.73
8.245,0.37,1.13,-0.18,1.20
8.255,-0.79,1.43,0.43,1.69
8.265,-2.88,-0.95,-0.08,3.04
8.276,-2.22,-2.58,0.36,3.42
8.286,0.23,-1.83,-0.40,1.89
8.296,1.39,-0.88,0.00,1.65
8.306,1.76,-0.27,0.64,1.89
8.316,0.99,-0.44,-0.21,1.10
8.326,0.09,-0.77,-0.16,0.79
8.336,0.48,0.07,0.40,0.63
8.346,1.10,0.88,0.42,1.47
8.356,0.52,0.29,-0.64,0.88
8.366,0.31,0.45,-0.17,0.57
8.376,-1.32,0.99,0.76,1.82
8.386,-5.51,2.04,-0.19,5.88
8.396,-2.84,1.17,-2.28,3.82
8.407,-0.02,0.66,-0.66,0.94
8.417,0.67,0.50,0.99,1.30
8.427,2.40,-1.51,0.83,2.96
8.437,1.02,-0.40,0.33,1.14
8.447,-0.67,-1.44,-0.24,1.60
8.457,-0.57,-1.30,-1.00,1.74
8.467,-0.57,0.29,1.26,1.41
8.477,1.06,0.96,0.32,1.47
8.487,1.36,1.14,-0.90,1.99
8.497,0.26,1.15,-0.13,1.19
8.507,-1.39,1.16,-0.08,1.81
8.517,-1.81,0.40,0.44,1.91
8.527,-1.34,-0.61,-0.79,1.67
8.538,-0.27,-0.46,-0.05,0.54
8.548,0.82,-0.54,0.04,0.98
8.558,1.10,-0.96,0.08,1.46
8.568,0.12,-0.68,0.51,0.86
8.578,-0.48,-0.85,-0.23,1.00
8.588,-0.16,-0.14,-0.14,0.25
8.598,1.20,1.17,0.94,1.92
8.608,0.86,0.75,-0.77,1.37
8.618,0.49,0.97,-0.45,1.18
8.628,0.25,1.67,0.78,1.86
8.638,-2.30,-0.36,-0.45,2.37
8.648,-1.87,0.06,-0.12,1.87
8.658,-0.69,-0.59,-0.75,1.17
8.669,0.34,-1.00,-0.08,1.06
8.679,1.07,-0.34,0.82,1.39
8.689,0.33,-1.18,-0.05,1.23
8.699,-0.22,0.12,-0.01,0.25
8.709,-0.56,0.02,-0.17,0.59
8.719,-0.02,0.21,-0.22,0.31
8.729,1.60,1.28,0.85,2.22
8.739,1.37,0.75,-0.36,1.61
8.749,0.21,0.63,-0.41,0.78
8.759,-0.72,0.25,0.48,0.90
8.769,-2.44,-0.74,-0.52,2.60
8.779,-1.91,-0.04,-0.09,1.92
8.790,-0.16,-0.53,-0.33,0.64
8.800,0.62,-0.47,-0.05,0.78
8.810,0.95,0.34,0.36,1.07
8.820,0.42,-0.33,0.14,0.55
8.830,-0.66,-0.06,-0.40,0.78
8.840,-0.14,-0.58,-0.05,0.60
8.850,0.52,-0.01,0.41,0.66
8.860,1.27,0.49,0.74,1.55
8.870,1.61,1.29,-0.39,2.10
8.880,0.26,0.71,0.08,0.76
8.890,-2.09,1.01,1.13,2.58
8.900,-2.28,0.25,0.19,2.30
8.911,-0.77,-0.35,-0.29,0.89
8.921,-0.60,-0.31,0.69,0.97
8.931,0.52,-0.95,-0.79,1.34
8.941,1.01,0.19,0.02,1.03
8.951,0.25,-0.41,-0.62,0.78
8.961,-0.42,-0.16,-0.53,0.70
8.971,-0.81,1.02,0.75,1.50
8.981,-0.10,-1.13,0.99,1.51
8.991,0.86,-0.21,0.55,1.04
9.001,0.60,-0.08,-1.04,1.20
9.011,0.44,1.28,-0.40,1.41
9.022,-0.71,-0.31,0.64,1.01
9.031,-1.40,0.04,-1.02,1.74
9.042,-0.65,-0.81,-0.61,1.21
9.052,-0.09,-0.86,-0.43,0.96
9.062,0.04,-0.51,-0.59,0.78
9.072,0.91,0.62,-0.90,1.42
9.082,-0.03,-1.45,2.10,2.55
9.092,0.26,1.15,-1.24,1.72
9.102,0.12,2.81,-3.17,4.24
9.112,-0.04,4.30,-1.04,4.42
9.122,1.60,3.97,0.58,4.32
9.132,1.00,4.49,-0.82,4.67
9.142,-0.16,3.77,-3.05,4.85
9.152,-0.99,0.19,-0.40,1.08
9.163,-3.75,-9.58,11.38,15.34
9.172,1.42,2.64,-8.37,8.89
9.183,-1.25,-2.97,0.75,3.31
9.193,-0.63,-3.98,10.14,10.91
9.203,0.15,-1.29,-4.06,4.26
9.213,-0.29,-1.73,0.97,2.01
9.223,-0.33,-1.38,-3.38,3.66
9.233,0.84,-0.55,-4.59,4.70
9.243,1.26,-0.31,2.88,3.16
9.253,2.47,0.85,2.65,3.72
9.263,0.75,-0.25,0.52,0.94
9.273,-0.18,1.55,0.45,1.62
9.283,-1.17,1.01,-2.19,2.68
9.294,-2.09,0.04,-1.61,2.64
9.304,-1.25,0.00,0.25,1.28
9.314,0.25,-1.17,0.57,1.33
9.324,0.13,-0.60,0.88,1.08
9.334,0.40,-0.77,0.70,1.11
9.344,0.34,0.12,-0.85,0.92
9.354,-0.14,0.22,-0.82,0.86
9.364,-0.17,-0.11,0.00,0.21
9.374,0.92,0.82,0.95,1.56
9.384,1.56,0.44,0.52,1.70
9.394,0.71,0.36,-0.63,1.02
9.404,-0.53,0.46,0.07,0.71
9.414,-1.67,-0.02,-0.62,1.78
9.425,-2.14,0.23,0.27,2.17
9.435,-0.77,0.23,-0.39,0.90
9.445,0.14,-0.16,-0.18,0.28
9.455,1.01,-0.00,0.16,1.02
9.465,1.07,-0.70,-0.00,1.28
9.475,-0.37,-0.56,0.10,0.68
9.485,-0.70,-0.45,0.32,0.90
9.495,0.24,-0.29,-0.70,0.80
9.505,0.53,0.32,1.14,1.30
9.515,1.64,1.09,-0.07,1.97
9.525,0.82,0.64,-0.83,1.33
9.535,-0.51,1.05,0.36,1.23
9.546,-2.03,0.46,0.02,2.08
9.556,-2.40,-0.41,-0.72,2.54
9.566,-0.28,-0.01,-0.02,0.28
9.576,0.56,-0.67,-0.07,0.88
9.586,0.95,-0.29,0.30,1.04
9.596,0.92,-0.21,0.31,0.99
9.606,-0.31,-0.85,-0.46,1.01
9.616,-1.34,-0.22,0.21,1.37
9.626,-0.76,-0.58,-0.49,1.08
9.636,1.03,0.87,0.20,1.36
9.646,2.19,1.15,1.71,3.01
9.656,1.37,0.69,-1.19,1.94
9.666,-0.39,0.42,-0.61,0.84
9.677,-2.25,0.07,0.60,2.33
9.687,-2.69,-0.00,-0.84,2.82
9.697,-1.01,-0.72,0.07,1.24
9.707,0.78,0.06,0.17,0.80
9.717,1.65,-0.06,-0.06,1.65
9.727,1.00,-0.36,-0.10,1.07
9.737,-0.49,-0.54,0.08,0.74
9.747,-1.17,-1.04,-0.43,1.62
9.757,-0.68,-0.41,0.40,0.89
9.767,0.23,-0.20,0.35,0.46
9.777,2.36,1.37,0.74,2.83
9.787,1.57,0.98,-0.79,2.01
9.798,-0.40,1.16,-1.07,1.62
9.808,-1.45,1.03,0.76,1.93
9.818,-3.08,-0.20,0.08,3.09
9.828,-1.13,-0.44,-0.85,1.47
9.838,0.43,-0.96,1.05,1.49
9.848,1.12,-0.43,-1.35,1.81
9.858,0.84,-0.13,0.58,1.03
9.868,0.57,-0.66,-0.21,0.90
9.878,-0.59,-0.77,0.28,1.02
9.888,-0.67,0.30,-0.07,0.74
9.898,0.29,-0.24,0.91,0.98
9.909,1.39,1.49,-0.01,2.04
9.918,1.25,0.75,-1.06,1.80
9.929,-0.03,0.66,-0.14,0.68
9.939,-2.30,1.03,0.43,2.56
9.949,-1.79,-0.12,-0.17,1.80
9.959,-0.33,-0.68,-0.51,0.92
9.969,-0.02,-0.15,0.40,0.43
9.979,0.91,-0.74,-0.58,1.30
9.989,0.61,-0.79,0.36,1.06
9.999,-0.27,-0.26,0.24,0.45
10.009,-0.75,-1.13,-0.12,1.37
10.019,0.00,-0.00,0.00,0.00
10.029,1.22,1.02,0.76,1.76
10.039,1.59,1.15,-0.31,1.98
10.049,0.13,0.46,-0.84,0.97
10.060,-0.34,1.42,0.55,1.57
10.070,-2.63,0.69,-0.03,2.72
10.080,-1.61,-0.20,-0.65,1.75
10.090,-0.08,-0.38,-0.13,0.41
10.100,0.60,-0.66,-0.02,0.89
10.110,0.97,-0.93,0.11,1.35
10.120,0.22,-0.67,0.52,0.88
10.130,-0.42,-0.55,-0.16,0.71
10.140,-0.34,-0.21,-0.19,0.44
10.150,0.11,0.46,0.16,0.50
10.160,1.35,1.12,0.48,1.82
10.171,1.53,0.95,-0.43,1.85
10.181,0.12,0.55,-0.28,0.63
10.191,-1.15,0.49,0.23,1.27
10.201,-2.28,-0.06,-0.27,2.30
10.211,-1.41,-0.18,-0.25,1.44
10.221,0.09,-0.45,-0.06,0.47
10.231,0.80,-0.21,-0.22,0.86
10.241,0.68,-0.29,0.41,0.84
10.251,0.12,-0.55,-0.25,0.62
10.261,-0.84,-0.47,0.18,0.98
10.271,-0.74,-0.74,-0.32,1.10
10.281,0.51,-0.05,-0.01,0.51
10.291,1.76,1.26,1.42,2.59
10.302,1.52,0.55,-0.64,1.74
10.312,0.23,0.69,-0.93,1.18
10.322,-0.95,1.02,0.64,1.53
10.332,-2.86,-0.14,-0.42,2.89
10.342,-1.77,-0.67,-0.43,1.94
10.352,0.31,-0.11,0.22,0.40
10.362,0.76,-0.46,-0.13,0.90
10.372,1.12,-0.24,0.14,1.16
10.382,0.60,-0.35,0.13,0.71
10.392,-0.95,-0.65,-0.16,1.16
10.402,-1.17,-0.40,-0.12,1.24
10.412,0.37,-0.19,0.33,0.53
10.423,2.25,1.33,0.75,2.72
10.433,1.34,0.68,-0.67,1.64
10.443,0.35,0.60,-0.51,0.87
10.453,-0.93,1.12,0.67,1.61
10.463,-3.18,-0.08,-0.31,3.19
10.473,-1.86,-0.14,-0.57,1.95
10.483,-0.11,-0.36,-0.32,0.50
10.493,0.94,-0.51,-0.09,1.07
10.503,1.58,-0.46,0.64,1.76
10.513,0.51,-0.74,0.31,0.95
10.523,-0.46,-0.30,-0.30,0.63
10.533,-0.74,-0.49,-0.05,0.89
10.544,0.18,0.33,0.28,0.46
10.554,1.22,1.10,0.39,1.69
10.564,1.55,1.31,-0.66,2.14
10.574,0.23,0.78,-0.03,0.82
10.584,-1.60,0.37,0.22,1.66
10.594,-2.36,-0.14,-0.30,2.38
10.604,-1.26,-0.61,-0.62,1.53
10.614,0.10,-0.37,0.18,0.42
10.624,0.68,-0.57,0.13,0.90
10.634,0.99,-0.38,-0.00,1.06
10.644,0.25,-0.03,0.48,0.55
10.654,-0.68,-0.57,-0.68,1.12
10.664,-0.45,-0.17,0.07,0.49
10.675,0.84,0.72,0.90,1.43
10.685,1.64,0.74,-0.17,1.81
10.695,0.96,1.16,-0.51,1.59
10.705,-0.19,0.69,0.25,0.76
10.715,-1.83,-0.39,-0.48,1.93
10.725,-2.39,-0.30,0.15,2.41
10.735,-1.09,-0.43,-0.43,1.25
10.745,0.53,-0.56,-0.18,0.79
10.755,1.01,0.08,0.53,1.14
10.765,0.67,-0.12,-0.36,0.77
10.775,-0.13,-0.18,0.11,0.25
10.785,-0.32,-0.17,-0.17,0.40
10.795,-0.62,-0.77,-0.07,0.99
10.806,0.88,0.46,0.85,1.31
10.816,2.03,0.91,0.13,2.23
10.826,0.55,0.54,-0.69,1.03
10.836,-0.22,0.84,0.06,0.87
10.846,-1.68,0.14,-0.30,1.72
10.856,-2.28,0.36,0.15,2.31
10.866,-0.78,-0.08,-0.31,0.84
10.876,0.32,-0.76,-0.51,0.97
10.886,0.81,-0.11,0.25,0.85
10.896,0.43,-0.89,0.12,1.00
10.906,-0.49,-0.42,0.23,0.68
10.916,-0.68,-0.83,-0.08,1.08
10.927,0.25,-0.28,-0.36,0.52
10.937,1.01,0.64,1.10,1.63
10.947,1.83,1.04,-0.07,2.11
10.957,0.74,0.94,-0.85,1.47
10.967,-0.75,0.74,0.14,1.06
10.977,-2.12,0.32,-0.11,2.15
10.987,-2.42,-0.44,-0.20,2.47
10.997,-0.22,-0.21,-0.23,0.39
11.007,0.67,-0.37,0.02,0.77
11.017,0.81,-0.66,-0.03,1.04
11.027,0.65,-0.48,0.13,0.82
11.037,-0.47,-0.54,0.05,0.72
11.047,-1.04,-0.42,-0.05,1.13
11.058,-0.20,-0.13,0.01,0.24
11.068,1.66,1.11,0.88,2.18
11.078,2.02,1.21,-0.36,2.38
11.088,0.48,0.26,-0.88,1.03
11.098,-0.60,1.20,0.84,1.58
11.108,-2.18,0.34,-0.84,2.36
11.118,-2.84,-1.41,0.37,3.19
11.128,-0.68,1.23,-0.91,1.68
11.138,0.80,-1.14,0.03,1.39
11.148,1.47,-0.21,0.47,1.55
11.158,0.64,-0.46,0.15,0.80
11.168,-0.14,-0.92,0.04,0.93
11.178,-0.46,0.11,-0.40,0.62
11.189,-0.71,-0.85,0.47,1.20
11.199,1.34,1.34,0.43,1.94
11.209,1.80,1.65,-0.20,2.45
11.219,0.28,0.45,-0.81,0.97
11.229,-0.53,0.54,0.15,0.77
11.239,-1.97,-0.38,0.28,2.03
11.249,-2.15,-0.60,-0.38,2.26
11.259,-0.36,-0.27,-0.27,0.52
11.269,0.35,-0.22,0.01,0.41
11.279,0.94,-0.10,0.02,0.95
11.289,0.72,-0.00,0.19,0.74
11.299,-0.32,-0.46,-0.17,0.58
11.309,-0.64,-0.27,-0.12,0.71
11.320,0.16,-0.19,0.49,0.55
11.330,1.20,0.52,0.34,1.36
11.340,1.28,1.14,-0.17,1.72
11.350,0.42,0.82,-0.51,1.05
11.360,-0.78,0.35,-0.08,0.86
11.370,-1.92,-0.35,0.15,1.95
11.380,-2.00,-0.63,-0.39,2.13
11.390,-0.17,-0.21,-0.30,0.41
11.400,0.39,-0.48,0.22,0.66
11.410,0.60,-0.30,-0.10,0.68
11.420,0.79,0.54,0.28,0.99
11.430,0.13,-0.15,-0.17,0.26
11.441,-0.66,-0.06,-0.33,0.74
11.451,0.13,-0.10,0.54,0.56
11.461,1.58,0.51,0.25,1.68
11.471,0.61,0.14,-0.19,0.66
11.481,0.41,0.77,-0.08,0.87
11.491,-0.92,0.05,-0.12,0.93
11.501,-1.99,0.27,0.03,2.01
11.511,-1.62,0.18,-0.39,1.67
11.521,-0.19,-0.11,-0.71,0.75
11.531,0.98,0.22,0.48,1.11
11.541,0.62,-1.01,-0.06,1.19
11.551,-0.27,-0.33,0.33,0.54
11.562,-0.28,-0.54,0.08,0.61
11.572,-0.42,-0.19,-0.73,0.86
11.582,0.17,0.09,0.70,0.73
11.592,1.69,0.59,0.47,1.85
11.602,1.16,0.84,-0.48,1.51
11.612,0.11,0.67,-0.22,0.71
11.622,-1.15,0.33,0.07,1.20
11.632,-2.55,-0.21,-0.09,2.56
11.642,-1.16,0.19,-0.51,1.29
11.652,0.40,0.05,0.03,0.40
11.662,0.59,-0.57,-0.03,0.83
11.672,0.83,-0.16,0.12,0.86
11.682,0.02,-0.62,-0.08,0.63
11.693,-0.85,-0.55,0.16,1.03
11.703,-0.48,-0.82,-0.30,1.00
11.713,0.39,-0.18,0.26,0.50
11.723,1.52,1.28,1.09,2.26
11.733,1.50,0.81,-0.79,1.88
11.743,0.41,0.55,-0.57,0.89
11.753,-0.90,1.28,0.32,1.60
11.763,-3.07,0.03,-0.57,3.13
11.773,-2.09,-0.36,0.17,2.13
11.783,0.23,0.12,-0.66,0.71
11.793,1.41,-0.68,0.37,1.61
11.803,1.21,-0.42,0.24,1.30
11.814,-0.04,-1.05,0.01,1.05
11.824,-0.43,-0.37,-0.12,0.58
11.834,-0.85,-0.54,-0.06,1.01
11.844,-0.65,-0.40,0.06,0.76
11.854,2.14,1.53,0.89,2.77
11.864,1.85,1.24,-0.39,2.26
11.874,0.01,0.37,-1.03,1.09
11.884,-0.93,1.29,0.78,1.77
11.894,-2.67,0.22,-0.27,2.69
11.904,-1.59,-0.88,-0.64,1.92
11.914,-0.02,-0.03,0.11,0.11
11.924,1.00,-0.62,-0.12,1.19
11.934,1.44,-0.33,0.24,1.50
11.945,-0.66,-1.10,0.26,1.31
11.955,-0.29,-0.55,-0.27,0.68
11.965,-0.35,-0.43,-0.14,0.57
11.975,0.17,0.23,0.55,0.62
11.985,1.60,1.25,0.48,2.09
11.995,1.04,0.62,-0.79,1.45
12.005,0.10,1.06,-0.34,1.11
12.015,-1.89,1.11,0.52,2.25
12.025,-2.11,0.10,-0.54,2.18
12.035,-0.70,-0.20,-0.22,0.76
12.045,0.36,-0.49,-0.11,0.62
12.056,0.79,-0.92,-0.08,1.22
12.066,0.73,-0.47,0.47,0.99
12.076,-0.33,-1.01,-0.07,1.07
12.086,-0.67,-0.30,0.03,0.73
12.096,-0.11,-0.03,-0.11,0.16
12.106,0.86,0.50,-0.04,1.00
12.116,1.54,1.19,0.65,2.05
12.126,0.64,0.64,-0.50,1.03
12.136,-0.11,0.73,-0.34,0.82
12.146,-1.82,0.95,0.44,2.10
12.156,-2.20,0.05,-0.50,2.26
12.166,-0.59,-0.26,-0.53,0.83
12.176,0.49,-0.44,0.15,0.68
12.187,0.88,-1.10,-0.04,1.41
12.197,0.27,-0.49,0.51,0.76
12.207,-0.64,-0.71,0.01,0.96
12.217,-0.65,-0.72,-0.69,1.19
12.227,0.01,0.11,0.23,0.26
12.237,0.98,0.29,0.52,1.15
12.247,1.89,1.10,0.36,2.22
12.257,0.73,0.94,-0.55,1.31
12.267,-0.48,1.12,-0.21,1.23
12.277,-1.89,0.48,0.01,1.95
12.287,-2.19,-0.28,-0.69,2.31
12.297,-0.22,-0.06,0.32,0.39
12.307,0.43,-0.80,-0.05,0.91
12.318,0.78,-0.44,-0.10,0.90
12.328,0.28,-0.59,0.29,0.71
12.338,-0.59,-0.61,-0.27,0.89
12.348,-0.55,-0.67,-0.05,0.86
12.358,0.06,-0.09,-0.03,0.11
12.368,1.07,0.74,0.90,1.58
12.378,1.99,0.89,-0.05,2.18
12.388,0.79,0.79,-0.96,1.47
12.398,-0.58,0.73,0.33,0.99
12.408,-2.46,0.46,-0.06,2.51
12.418,-2.32,0.02,-0.17,2.33
12.428,-0.36,-0.38,-0.57,0.78
12.438,0.94,-0.19,0.06,0.96
12.449,0.71,-0.76,0.16,1.05
12.459,0.42,-0.82,0.04,0.92
12.469,-0.20,-0.54,0.26,0.63
12.479,-0.84,-1.03,-0.27,1.36
12.489,-0.30,-0.32,-0.06,0.45
12.499,2.06,1.82,1.41,3.09
12.509,1.49,1.17,-1.01,2.14
12.519,0.16,0.92,-0.79,1.23
12.529,-0.24,1.34,0.71,1.53
12.539,-2.70,-0.41,-0.41,2.76
12.549,-1.92,-0.05,-0.04,1.92
12.560,-0.27,-0.77,-0.39,0.91
12.570,0.68,-0.75,-0.26,1.04
12.580,0.99,-0.03,0.76,1.25
12.590,0.10,-1.09,-0.16,1.10
12.600,-0.31,-0.01,-0.13,0.34
12.610,-0.49,-0.44,0.03,0.66
12.620,0.28,0.08,0.18,0.34
12.630,1.58,1.50,0.69,2.29
12.640,1.25,0.85,-0.67,1.66
12.650,0.15,1.09,-0.36,1.16
12.660,-1.22,0.22,0.27,1.27
12.670,-2.08,-0.17,-0.20,2.10
12.681,-1.67,-0.36,-0.17,1.72
12.691,-0.10,-0.77,-0.33,0.84
12.700,0.64,-0.23,-0.09,0.69
12.711,0.60,-0.55,0.27,0.86
12.721,0.77,-0.02,0.07,0.77
12.731,-0.35,-0.26,0.09,0.44
12.741,-0.65,-0.34,-0.31,0.80
12.751,0.28,0.38,0.12,0.48
12.761,1.32,0.92,0.76,1.78
12.771,1.03,0.89,-0.60,1.48
12.781,0.15,0.37,-0.36,0.54
12.791,-0.33,0.47,0.32,0.65
12.802,-1.96,-0.05,0.09,1.96
12.811,-2.12,-0.45,-0.54,2.24
12.822,-0.30,-0.17,-0.58,0.68
12.832,0.61,-0.34,0.14,0.71
12.842,0.65,-0.46,0.35,0.87
12.852,0.09,-0.36,0.24,0.45
12.862,-0.17,-0.55,-0.29,0.65
12.872,-0.38,-0.20,-0.19,0.47
12.882,0.03,-0.30,0.22,0.37
12.892,1.55,0.70,0.70,1.84
12.902,1.29,0.99,-0.20,1.64
12.912,0.09,0.78,-0.56,0.96
12.922,-0.77,0.66,0.07,1.02
12.932,-2.33,0.07,-0.21,2.34
12.943,-1.46,0.17,-0.05,1.47
12.953,-0.11,-0.84,-0.52,0.99
12.963,0.58,-0.59,0.05,0.83
12.973,0.79,-0.59,0.24,1.01
12.983,0.02,-0.57,0.22,0.61
12.993,-0.70,-0.28,-0.02,0.75
13.003,-0.13,-0.27,-0.44,0.53
13.013,0.80,0.64,0.69,1.24
13.023,1.66,0.96,0.27,1.94
13.033,0.99,0.99,-0.75,1.59
13.044,-0.30,0.78,0.25,0.87
13.053,-1.64,0.29,-0.15,1.67
13.064,-2.38,-0.09,-0.02,2.38
13.074,-1.08,-0.33,-0.72,1.34
13.084,0.48,-0.58,-0.15,0.77
13.094,0.77,-0.58,0.39,1.04
13.104,0.80,-0.47,0.05,0.93
13.114,0.16,-0.57,0.28,0.66
13.124,-0.84,-0.30,-0.35,0.96
13.134,-0.79,-0.15,-0.03,0.81
13.144,1.30,1.23,0.79,1.96
13.154,1.76,1.15,-0.23,2.12
13.164,0.70,0.58,-0.64,1.12
13.174,0.15,0.75,0.13,0.77
13.184,-1.89,-0.53,0.09,1.97
13.195,-2.65,-0.46,-0.02,2.69
13.205,-1.11,-0.37,-0.59,1.31
13.215,0.54,0.02,-0.26,0.60
13.225,1.01,0.26,0.33,1.10
13.235,0.80,-0.51,-0.05,0.95
13.245,-0.09,0.16,0.16,0.24
13.255,-0.73,-0.62,-0.18,0.97
13.265,-0.46,-0.71,-0.21,0.87
13.275,0.81,0.59,1.05,1.45
13.285,2.04,1.29,0.03,2.42
13.295,0.55,0.85,-0.86,1.33
13.305,-0.35,0.67,0.04,0.76
13.316,-1.61,-0.22,-0.23,1.64
13.326,-2.33,-0.51,0.04,2.39
13.336,-0.70,-0.29,-0.08,0.77
13.346,0.25,-0.43,-0.35,0.61
13.356,0.86,0.30,0.30,0.96
13.366,0.96,-0.16,-0.16,0.99
13.376,-0.02,-0.26,-0.00,0.26
13.386,-0.72,-0.28,0.06,0.77
13.396,-0.38,-0.49,-0.20,0.65
13.406,0.53,0.16,0.68,0.88
13.416,1.66,1.00,0.39,1.98
13.426,0.76,0.80,-0.95,1.46
13.436,0.04,0.68,-0.06,0.68
13.446,-1.03,0.24,0.25,1.08
13.457,-2.55,-0.66,-0.11,2.63
13.467,-0.99,0.10,-0.59,1.16
13.477,0.07,-0.64,-0.39,0.75
13.487,-0.06,-0.75,0.55,0.94
13.497,1.12,-0.03,0.24,1.15
13.507,0.12,-0.07,-0.36,0.38
13.517,-0.56,0.02,0.29,0.63
13.527,-0.08,-0.29,-0.52,0.60
13.537,0.70,0.25,0.46,0.87
13.547,1.58,0.66,0.64,1.83
13.557,0.46,0.33,-0.71,0.91
13.568,-0.26,0.70,0.13,0.76
13.578,-1.26,0.49,-0.30,1.38
13.588,-2.29,0.08,-0.15,2.30
13.598,-0.71,-0.22,-0.49,0.89
13.608,0.56,-0.21,-0.10,0.61
13.618,0.75,-0.56,0.26,0.97
13.628,0.13,-0.62,0.19,0.66
13.638,-0.19,-0.36,0.20,0.45
13.648,-0.37,-0.16,-0.48,0.62
13.658,0.03,0.06,-0.06,0.09
13.668,1.03,0.32,0.69,1.28
13.678,1.55,0.98,0.01,1.83
13.688,0.48,0.39,-0.46,0.77
13.699,-0.69,0.55,-0.13,0.89
13.709,-2.08,0.46,0.42,2.18
13.719,-2.01,0.07,-0.73,2.14
13.729,-0.09,0.21,-0.46,0.51
13.739,0.52,-0.32,0.23,0.65
13.749,0.73,-0.78,-0.07,1.07
13.759,0.65,-0.38,0.41,0.85
13.769,-0.31,-0.93,-0.03,0.98
13.780,-1.18,-0.76,-0.25,1.42
13.789,-0.08,0.53,0.07,0.54
13.799,1.42,0.84,0.60,1.75
13.809,1.53,0.99,-0.17,1.83
13.820,0.77,0.82,-0.63,1.29
13.830,-0.26,0.33,0.15,0.45
13.840,-2.42,0.09,0.17,2.43
13.850,-2.52,-0.07,-0.21,2.53
13.860,-0.45,-0.32,-0.73,0.92
13.870,0.93,0.20,0.10,0.95
13.880,1.00,-0.30,0.07,1.05
13.890,0.56,-0.99,0.21,1.16
13.900,-0.68,-0.39,0.62,1.00
13.910,-0.44,-0.51,-1.54,1.67
13.920,-0.54,-1.50,1.08,1.92
13.930,1.10,2.04,0.22,2.33
13.941,1.86,0.28,0.61,1.98
13.951,0.81,1.69,-1.28,2.27
13.961,-0.68,0.85,0.30,1.13
13.971,-2.40,0.65,-0.27,2.50
13.981,-2.16,-0.16,-0.49,2.22
13.991,-0.51,-1.13,-0.07,1.24
14.001,1.04,-0.19,0.13,1.06
14.011,1.44,-1.14,0.65,1.95
14.021,0.37,-0.08,-0.27,0.46
14.031,-0.62,-1.30,0.09,1.44
14.041,-0.73,0.41,-1.17,1.43
14.051,-0.25,0.21,0.12,0.35
14.062,1.08,0.43,1.84,2.18
14.072,1.86,1.99,-0.99,2.90
14.082,0.42,-0.19,0.06,0.46
14.092,-0.19,1.87,-0.37,1.92
14.102,-2.83,-0.18,0.14,2.84
14.112,-2.09,-0.57,-1.03,2.40
14.122,-0.07,-0.86,0.26,0.90
14.132,0.72,-0.68,0.62,1.16
14.142,0.91,-0.40,-0.30,1.03
14.152,0.08,-0.93,0.07,0.94
14.162,-0.38,0.11,-0.28,0.48
14.172,-0.58,-0.50,-0.20,0.80
14.182,0.07,0.04,0.12,0.14
14.192,1.10,0.68,0.91,1.58
14.203,1.50,1.09,-0.09,1.86
14.213,0.47,0.78,-0.91,1.29
14.223,-0.75,0.93,0.06,1.20
14.233,-2.39,0.79,0.02,2.51
14.243,-1.54,-0.44,-0.46,1.66
14.253,0.07,-0.37,-0.02,0.38
14.263,0.71,-0.58,0.00,0.92
14.273,0.50,-1.17,0.11,1.27
14.283,0.08,-0.29,0.16,0.34
14.293,-0.68,-0.94,-0.29,1.19
14.303,-0.35,-0.16,-0.05,0.38
14.313,0.43,0.08,0.26,0.51
14.324,1.98,1.11,0.74,2.39
14.334,1.33,1.17,-0.51,1.84
14.344,-0.33,0.45,-0.68,0.88
14.354,-1.44,1.50,0.57,2.16
14.364,-2.55,0.19,-0.40,2.59
14.374,-0.85,-0.12,-0.63,1.07
14.384,0.39,-0.40,0.20,0.59
14.394,0.50,-1.26,-0.38,1.41
14.404,0.70,-0.46,0.44,0.94
14.414,0.01,-0.98,0.39,1.06
14.424,-0.96,-1.03,-0.52,1.50
14.434,-0.21,0.25,0.10,0.34
14.444,1.05,0.61,0.57,1.34
14.455,1.58,1.25,0.10,2.02
14.465,1.12,1.16,-0.61,1.72
14.475,0.06,0.63,-0.20,0.66
14.485,-1.65,0.58,0.28,1.77
14.495,-2.48,-0.12,0.01,2.48
14.505,-1.32,-0.77,-0.87,1.76
14.515,0.49,0.09,0.05,0.50
14.525,0.72,-0.54,0.12,0.91
14.535,0.54,-0.87,-0.09,1.03
14.545,0.11,-0.24,0.45,0.52
14.555,-0.60,-0.97,-0.23,1.16
14.565,-0.57,-0.33,-0.20,0.69
14.576,1.34,1.01,1.00,1.95
14.586,1.81,1.40,-0.10,2.29
14.596,0.55,0.94,-0.87,1.39
14.606,-0.16,0.96,0.11,0.98
14.616,-1.84,0.26,0.03,1.86
14.626,-2.54,-0.53,-0.11,2.60
14.636,-1.10,-0.68,-0.60,1.43
14.646,0.74,-0.45,-0.04,0.87
14.656,1.33,-0.17,0.24,1.37
14.666,0.58,-0.46,0.35,0.82
14.676,-0.32,-0.17,-0.00,0.36
14.686,-0.59,-0.17,-0.50,0.79
14.696,-0.43,0.24,-0.03,0.50
14.707,0.97,0.58,0.89,1.44
14.717,1.78,0.80,-0.32,1.98
14.727,0.86,0.52,-0.33,1.05
14.737,0.06,0.93,0.41,1.02
14.747,-2.37,-0.22,-0.36,2.41
14.757,-2.62,0.25,-0.32,2.65
14.767,-0.77,-0.53,-0.67,1.15
14.777,0.61,-0.36,0.17,0.73
14.787,0.81,-0.31,0.46,0.98
14.797,0.69,-1.17,-0.12,1.36
14.808,-0.00,0.16,0.18,0.24
14.818,-0.91,-0.73,-0.16,1.18
14.828,-0.40,-0.15,-0.66,0.78
14.838,0.99,0.81,1.32,1.84
14.848,1.63,1.07,-0.02,1.95
14.858,0.75,0.88,-0.94,1.49
14.868,-0.12,0.65,0.13,0.67
14.878,-1.19,0.25,0.11,1.22
14.888,-2.68,-0.75,-0.01,2.78
14.898,-1.07,-0.40,-0.69,1.34
14.908,0.48,-0.69,-0.14,0.86
14.918,0.73,-0.16,0.39,0.84
14.928,0.32,-0.36,0.01,0.48
14.939,0.00,-0.48,0.10,0.49
14.949,-0.19,0.25,-0.27,0.42
14.959,-0.11,-0.36,0.13,0.40
14.969,1.12,0.80,0.61,1.51
14.979,1.42,1.01,-0.03,1.75
14.989,0.34,0.66,-0.71,1.03
14.999,-0.47,1.04,0.20,1.16
15.009,-2.08,-0.46,0.01,2.13
15.019,-1.91,-0.09,-0.48,1.97
15.029,-0.70,-0.64,-0.24,0.98
15.039,0.58,-0.74,-0.15,0.95
15.049,1.18,-0.18,0.40,1.26
15.059,0.56,-0.60,0.22,0.85
15.069,-0.57,0.05,-0.17,0.59
15.080,-0.68,0.06,-0.17,0.71
15.090,0.16,-0.07,-0.06,0.19
15.100,1.15,0.84,0.83,1.64
15.110,1.87,0.84,-0.43,2.09
15.120,0.47,0.39,-0.35,0.70
15.130,-1.22,0.29,0.35,1.30
15.140,-2.56,-0.24,-0.16,2.57
15.150,-1.96,0.11,-0.77,2.11
15.160,0.03,0.11,0.03,0.12
15.170,0.64,-0.56,-0.13,0.86
15.180,1.17,-0.19,0.22,1.21
15.191,0.49,-0.33,0.38,0.70
15.201,-0.68,-0.86,-0.33,1.14
15.211,-0.77,-0.19,-0.12,0.80
15.221,0.24,0.29,0.61,0.71
15.231,1.49,1.20,0.26,1.93
15.241,1.22,1.03,-0.57,1.70
15.251,0.40,0.78,-0.53,1.03
15.261,-0.96,0.19,0.35,1.03
15.271,-2.46,-0.63,0.17,2.55
15.281,-2.13,-0.66,-0.55,2.30
15.291,0.08,-0.25,-0.31,0.41
15.301,0.86,-0.12,0.14,0.88
15.311,0.49,-0.47,-0.03,0.68
15.322,0.40,-0.13,0.20,0.47
15.332,-0.28,-0.17,-0.25,0.41
15.342,-1.17,-0.71,-0.42,1.43
15.352,-0.73,-0.69,-0.01,1.00
15.362,-0.09,-0.65,-0.20,0.68
15.372,-0.03,-0.58,0.12,0.60
15.382,-0.29,-0.81,-0.09,0.86
15.392,-0.72,-0.30,-0.37,0.86
15.402,-2.28,0.48,0.05,2.33
15.412,-0.74,1.03,0.16,1.28
15.422,4.15,3.95,2.36,6.20
15.432,2.71,1.60,-3.28,4.55
15.442,0.06,1.47,0.08,1.48
15.453,-0.12,1.11,1.26,1.69
15.463,-1.78,-2.73,-1.11,3.45
15.473,-1.52,-2.44,0.89,3.01
15.483,1.63,-1.20,1.62,2.59
15.493,2.06,0.03,-0.34,2.09
15.503,0.22,1.01,-0.98,1.43
15.513,-0.12,1.30,-0.28,1.33
15.523,-0.53,0.92,-0.22,1.09
15.533,-1.07,0.10,0.25,1.11
15.543,-0.87,-0.89,-0.00,1.24
15.554,0.09,-1.30,-0.58,1.43
15.563,0.04,-1.41,0.20,1.42
15.574,0.68,-0.92,0.63,1.30
15.584,0.82,-0.32,0.10,0.89
15.594,-0.37,-0.39,-0.74,0.91
15.604,0.49,-0.34,0.93,1.10
15.614,2.22,1.41,-0.02,2.63
15.624,1.10,0.01,-0.75,1.33
15.634,0.47,0.02,-0.10,0.48
15.644,-0.43,0.42,0.88,1.07
15.654,-5.26,1.69,0.78,5.58
15.664,-4.05,1.25,-2.85,5.10
15.674,-0.33,0.92,-0.78,1.25
15.684,0.51,0.70,0.24,0.90
15.694,2.46,0.51,0.76,2.63
15.705,1.88,-0.64,0.99,2.22
15.715,-1.43,-1.66,-0.69,2.30
15.725,-1.57,-1.96,0.02,2.51
15.735,0.66,-0.08,0.26,0.72
15.745,1.40,0.79,0.61,1.72
15.755,1.39,1.08,-0.51,1.83
15.765,0.63,1.00,-0.37,1.24
15.775,-1.69,1.12,-0.03,2.03
15.785,-2.62,0.92,-0.20,2.79
15.795,-1.20,-0.64,-0.54,1.46
15.805,0.58,-0.14,-0.10,0.61
15.815,0.78,-1.13,0.34,1.41
15.826,0.69,-0.75,0.19,1.04
15.836,-0.35,-0.73,0.35,0.88
15.846,-0.78,-1.05,-0.49,1.39
15.856,-0.57,-0.07,0.08,0.58
15.866,0.61,0.54,0.48,0.94
15.876,2.19,1.74,0.16,2.80
15.886,1.04,1.22,-0.42,1.66
15.896,-0.29,0.67,-0.58,0.93
15.906,-1.52,0.83,0.43,1.78
15.916,-3.01,-0.76,-0.38,3.13
15.926,-0.71,-0.82,-0.58,1.24
15.936,0.51,-0.45,0.38,0.78
15.946,1.60,-0.11,0.18,1.61
15.956,0.73,-0.40,0.09,0.84
15.966,-0.46,-0.06,0.07,0.47
15.977,-0.66,-0.35,-0.61,0.96
15.987,-0.70,-0.49,-0.10,0.86
15.997,0.21,0.15,0.64,0.69
16.007,1.77,0.42,0.77,1.98
16.017,1.38,0.92,-0.79,1.84
16.027,0.15,0.63,-0.04,0.65
16.037,-1.91,0.99,-0.02,2.15
16.047,-2.81,0.16,-0.59,2.88
16.057,-0.62,-0.08,-0.31,0.70
16.067,0.66,-0.56,0.05,0.87
16.078,0.97,-0.65,0.43,1.24
16.087,0.70,-0.82,-0.18,1.09
16.098,-0.76,-0.71,0.28,1.08
16.108,-0.70,-0.53,-0.14,0.89
16.118,-0.15,-0.31,-0.49,0.60
16.128,0.51,0.35,0.69,0.93
16.138,1.64,1.11,0.59,2.07
16.148,1.07,0.91,-0.84,1.64
16.158,-0.35,0.84,-0.28,0.95
16.168,-1.96,1.08,0.06,2.24
16.178,-1.98,0.06,-0.23,2.00
16.188,-0.26,-0.30,-0.32,0.51
16.199,0.52,-0.94,-0.19,1.09
16.209,0.74,-0.75,0.50,1.17
16.219,0.12,-0.68,0.18,0.71
16.229,-0.94,-0.73,-0.46,1.28
16.239,-0.69,0.04,-0.05,0.69
16.249,0.01,0.70,-1.09,1.29
16.259,1.38,4.55,-1.91,5.13
16.269,1.90,4.06,0.40,4.50
16.279,0.74,4.23,-0.57,4.33
16.289,-0.02,4.09,-2.24,4.66
16.299,-2.04,3.88,-2.72,5.15
16.309,-3.21,-9.69,6.07,11.87
16.319,-0.82,-0.80,2.60,2.84
16.330,2.76,-0.16,-8.04,8.51
16.340,-1.88,-5.60,11.12,12.59
16.350,0.10,-1.51,0.10,1.51
16.360,-0.16,-0.75,-1.13,1.37
16.370,-0.32,-1.83,-1.98,2.72
16.380,-0.06,-0.78,-5.39,5.45
16.390,0.99,-0.58,1.13,1.61
16.400,1.87,0.66,3.67,4.18
16.410,2.00,0.87,1.10,2.45
16.420,0.04,0.13,-0.03,0.14
16.430,-0.83,2.21,-0.99,2.57
16.440,-2.37,0.85,-2.11,3.29
16.450,-1.97,-0.02,-0.85,2.15
16.460,0.04,0.52,1.06,1.18
16.470,0.04,-1.68,0.55,1.77
16.481,0.81,-0.72,0.57,1.22
16.491,0.16,-0.90,0.01,0.91
16.501,-0.50,-1.06,-1.04,1.57
16.511,-0.42,-0.58,-0.40,0.82
16.521,0.55,0.40,0.85,1.09
16.531,1.38,1.52,1.23,2.39
16.541,1.27,1.06,-0.41,1.70
16.551,0.73,1.06,-1.20,1.75
16.561,-0.50,0.82,-0.11,0.97
16.571,-2.67,-0.43,-0.07,2.70
16.582,-2.35,-0.92,-0.18,2.53
16.592,0.41,-0.20,0.51,0.69
16.602,0.95,-0.29,-0.18,1.01
16.612,0.54,-0.37,-0.19,0.68
16.622,0.38,-0.06,0.04,0.39
16.632,-0.62,-0.04,-0.29,0.68
16.642,-1.14,-0.36,0.32,1.24
16.652,0.25,-0.32,-0.01,0.41
16.662,2.03,0.85,0.76,2.33
16.672,1.64,0.97,-0.15,1.91
16.682,0.10,0.34,-0.79,0.86
16.692,-0.99,0.89,0.25,1.35
16.702,-2.62,-0.05,-0.09,2.62
16.713,-1.84,-0.33,-0.60,1.96
16.723,-0.30,-0.24,0.12,0.40
16.733,1.13,-0.68,-0.33,1.36
16.743,1.17,-0.36,0.47,1.31
16.753,0.21,-0.24,0.32,0.45
16.763,-0.72,-0.61,-0.37,1.02
16.773,-1.09,-0.07,-0.16,1.10
16.783,-0.21,0.04,0.12,0.25
16.793,1.86,1.12,0.86,2.34
16.803,1.66,0.65,-0.72,1.92
16.813,0.98,0.77,-0.21,1.26
16.823,-0.73,0.63,0.56,1.12
16.834,-3.08,-0.41,-0.55,3.16
16.844,-2.13,-0.25,-0.35,2.17
16.854,-0.08,-0.42,-0.38,0.57
16.864,0.81,-0.27,0.26,0.89
16.874,0.99,-0.63,0.25,1.20
16.884,0.49,-0.09,0.11,0.51
16.894,-0.44,-0.30,0.01,0.53
16.904,-0.63,-0.26,-0.48,0.84
16.914,0.11,0.18,0.58,0.61
16.924,1.52,1.03,0.37,1.88
16.934,1.00,0.83,-0.52,1.40
16.944,0.38,1.29,-0.16,1.35
16.954,-1.10,0.03,-0.14,1.11
16.965,-2.15,-0.56,0.00,2.22
16.975,-1.70,-0.45,-0.28,1.78
16.985,0.41,-0.50,-0.33,0.73
16.995,0.81,-0.21,0.32,0.90
17.005,0.13,-0.74,0.00,0.75
17.015,-0.01,0.22,0.07,0.23
17.025,-0.04,0.37,-0.03,0.38
17.035,-0.64,-0.67,-0.58,1.10
17.045,0.55,0.11,0.79,0.97
17.055,2.05,0.89,0.43,2.27
17.065,1.07,0.42,-0.71,1.35
17.076,-0.24,0.60,0.41,0.76
17.086,-1.51,0.09,-0.45,1.58
17.096,-2.72,0.17,-0.08,2.73
17.106,-1.26,0.19,-0.30,1.31
17.116,0.43,-0.67,-0.66,1.04
17.126,1.05,0.36,0.68,1.30
17.136,0.99,-0.70,-0.07,1.22
17.146,-0.09,-0.48,0.15,0.51
17.156,-0.82,-0.30,0.10,0.88
17.166,-0.62,-0.80,-0.54,1.14
17.176,0.26,0.51,0.76,0.95
17.186,2.21,0.98,0.48,2.46
17.196,1.19,0.82,-1.11,1.82
17.207,-0.22,0.83,0.32,0.92
17.217,-1.75,-0.04,-0.09,1.75
17.227,-2.78,-0.19,-0.38,2.81
17.237,-0.63,-0.02,-0.03,0.63
17.247,0.69,-0.20,-0.23,0.75
17.257,0.77,-0.26,0.02,0.81
17.267,0.78,-0.38,0.09,0.87
17.277,-0.49,-0.25,0.06,0.55
17.287,-1.09,-0.67,-0.06,1.28
17.297,-0.14,-0.16,-0.08,0.23
17.307,1.29,0.59,0.90,1.68
17.318,2.12,1.42,-0.05,2.55
17.328,0.57,0.47,-0.90,1.16
17.338,-0.51,0.73,0.13,0.90
17.348,-2.05,-0.09,-0.01,2.05
17.358,-2.60,-0.54,-0.16,2.66
17.368,-0.90,-0.19,-0.26,0.95
17.378,0.87,-0.46,-0.37,1.05
17.388,1.29,0.28,0.35,1.37
17.398,0.53,-0.41,0.20,0.70
17.408,-0.45,-0.49,-0.28,0.72
17.418,-1.09,-0.25,-0.01,1.12
17.428,-0.65,-0.52,-0.11,0.84
17.438,0.96,0.39,0.71,1.26
17.449,2.17,1.29,0.18,2.53
17.459,1.25,0.80,-0.71,1.64
17.469,-0.20,0.55,-0.10,0.60
17.479,-1.83,-0.15,0.05,1.84
17.489,-2.75,-0.52,-0.11,2.80
17.499,-1.01,-0.24,-0.45,1.13
17.509,0.32,-0.24,0.02,0.40
17.519,0.93,-0.23,-0.02,0.96
17.529,0.98,-0.01,0.17,1.00
17.539,-0.03,-0.15,-0.04,0.16
17.549,-0.79,-0.53,-0.13,0.96
17.559,-0.21,-0.16,0.10,0.28
17.569,0.86,0.01,0.57,1.03
17.579,1.38,1.17,0.16,1.82
17.590,0.49,0.92,-0.75,1.28
17.600,-0.04,0.74,-0.20,0.77
17.610,-1.36,-0.03,0.16,1.37
17.620,-2.29,-0.73,-0.14,2.40
17.630,-0.56,0.04,-0.45,0.72
17.640,0.17,-0.77,-0.06,0.79
17.650,-0.09,-1.04,0.19,1.06
17.660,0.92,0.81,0.30,1.26
17.670,0.11,-0.02,-0.19,0.22
17.680,-0.65,-0.31,-0.35,0.80
17.690,0.26,0.25,0.28,0.45
17.700,1.68,0.46,0.50,1.81
17.711,0.96,0.42,-0.28,1.09
17.721,0.27,0.24,0.02,0.36
17.731,-0.78,0.42,-0.08,0.89
17.741,-2.09,0.25,-0.11,2.11
17.751,-1.69,0.00,-0.34,1.72
17.761,-0.27,-0.01,-0.69,0.74
17.771,0.53,0.20,0.17,0.60
17.781,0.97,-0.91,0.32,1.37
17.791,0.19,-0.30,0.10,0.36
17.801,-0.74,-0.65,0.33,1.03
17.811,-0.50,-0.13,-0.56,0.77
17.821,0.10,0.22,0.09,0.26
17.831,1.60,0.55,0.77,1.86
17.842,1.60,0.90,-0.60,1.93
17.852,0.06,0.40,-0.09,0.41
17.862,-1.11,0.41,0.07,1.19
17.872,-2.39,-0.25,-0.25,2.42
17.882,-1.37,0.55,-0.04,1.48
17.892,0.26,0.01,-0.51,0.57
17.902,0.62,-0.28,-0.04,0.68
17.912,0.86,0.04,0.30,0.92
17.922,0.17,-0.54,-0.03,0.56
17.932,-1.07,-0.93,-0.01,1.42
17.942,-0.56,-0.66,-0.07,0.87
17.952,0.25,-0.29,-0.08,0.39
17.963,1.47,0.81,0.86,1.88
17.973,1.80,1.10,0.12,2.11
17.983,0.29,0.80,-0.83,1.19
17.993,-0.88,0.75,-0.16,1.17
18.003,-2.70,0.14,-0.09,2.71
18.013,-1.96,-0.07,-0.16,1.96
18.023,-0.17,-0.64,-0.35,0.75
18.033,0.91,0.00,0.14,0.92
18.043,1.45,-0.33,0.33,1.52
18.053,0.15,-0.81,-0.19,0.85
18.063,-0.72,-0.59,0.00,0.93
18.073,-0.92,-0.71,-0.14,1.17
18.083,-0.57,0.07,0.02,0.57
18.094,0.87,0.31,0.51,1.06
18.104,2.59,1.37,0.18,2.94
18.114,1.12,0.68,-0.66,1.47
18.124,-0.56,0.86,-0.07,1.03
18.134,-2.79,0.59,0.19,2.86
18.144,-2.72,-0.65,-0.88,2.94
18.154,-0.42,-0.07,0.06,0.43
18.164,0.79,-0.70,0.03,1.05
18.174,1.67,-0.49,0.02,1.74
18.184,0.55,-0.30,0.43,0.76
18.194,-0.55,-1.26,-0.27,1.40
18.204,-0.41,0.10,-0.18,0.46
18.215,-0.90,-0.61,0.25,1.11
18.225,1.10,1.39,0.66,1.89
18.235,1.62,1.22,-0.19,2.04
18.245,0.76,0.47,-1.05,1.38
18.255,-0.40,1.39,0.50,1.53
18.265,-2.69,0.26,0.01,2.70
18.275,-1.79,-0.90,-0.87,2.19
18.285,0.02,-0.55,0.21,0.59
18.295,0.30,-0.86,0.08,0.91
18.305,0.91,-0.52,-0.07,1.05
18.315,0.50,-0.23,0.52,0.76
18.326,-0.74,-0.47,-0.34,0.95
18.336,-0.40,-0.11,-0.15,0.44
18.346,0.49,0.52,0.21,0.74
18.356,1.60,0.93,0.54,1.93
18.366,1.16,0.79,-0.32,1.44
18.376,0.06,0.51,-0.43,0.67
18.386,-1.55,0.99,0.46,1.89
18.396,-2.78,0.43,-0.60,2.88
18.406,-1.05,-0.59,-0.57,1.33
18.416,0.47,-0.12,0.05,0.49
18.426,0.97,-1.00,-0.04,1.40
18.436,0.82,-0.70,0.61,1.24
18.446,-0.31,-0.33,0.07,0.45
18.456,-0.87,-0.68,-0.33,1.15
18.467,-0.45,0.37,-0.23,0.63
18.477,0.31,-0.03,0.33,0.46
18.487,2.03,1.11,0.37,2.34
18.497,1.35,0.84,-0.33,1.63
18.507,-0.10,0.42,-0.28,0.51
18.517,-1.66,0.54,0.22,1.75
18.527,-2.61,0.04,-0.31,2.62
18.537,-0.79,-0.08,-0.65,1.03
18.547,0.46,-0.24,0.16,0.55
18.558,0.84,-0.21,-0.03,0.87
18.567,0.79,-0.49,0.35,0.99
18.578,-0.36,-0.50,0.09,0.63
18.588,-0.90,-0.68,-0.29,1.16
18.598,-0.36,-0.29,-0.16,0.49
18.608,0.78,0.51,0.55,1.08
18.618,1.85,0.88,0.57,2.13
18.628,0.87,0.82,-0.82,1.45
18.638,0.19,0.94,-0.15,0.97
18.648,-1.78,0.11,0.05,1.79
18.658,-2.94,-0.05,-0.33,2.96
18.668,-1.35,-0.84,-0.33,1.62
18.678,1.27,0.33,0.09,1.31
18.688,0.93,-0.80,0.14,1.23
18.698,0.71,-0.30,-0.04,0.77
18.709,-0.40,-0.48,0.12,0.64
18.719,-1.30,-0.59,-0.28,1.46
18.729,-0.85,-0.41,-0.19,0.96
18.739,1.05,0.10,0.83,1.34
18.749,2.87,1.78,0.47,3.41
18.759,0.99,0.28,-0.94,1.39
18.769,-0.24,0.89,-0.17,0.94
18.779,-1.88,0.51,0.23,1.96
18.789,-3.17,-0.52,-0.38,3.23
18.799,-1.25,-0.01,-0.33,1.29
18.809,0.60,-0.85,-0.25,1.07
18.819,1.58,-0.03,0.16,1.59
18.830,0.97,-0.50,0.53,1.21
18.840,-0.26,-0.39,-0.24,0.52
18.850,-0.73,0.10,0.06,0.74
18.860,-0.81,-0.37,-0.13,0.90
18.870,0.83,1.11,0.48,1.47
18.880,1.93,0.96,0.03,2.16
18.890,0.96,0.50,-0.90,1.41
18.900,-0.28,0.62,0.60,0.91
18.910,-2.01,-0.29,-0.05,2.03
18.920,-2.26,-0.06,-0.42,2.30
18.930,-0.62,-0.38,-0.35,0.80
18.940,-0.03,-0.61,-0.43,0.75
18.950,0.78,-0.02,0.43,0.89
18.961,1.61,0.27,0.49,1.70
18.971,-0.69,-0.35,-0.26,0.82
18.981,-1.05,-0.84,-0.47,1.42
18.991,0.14,-0.16,0.12,0.24
19.001,1.33,0.80,1.10,1.90
19.011,1.37,0.88,-0.29,1.66
19.021,0.71,0.88,-0.59,1.27
19.031,-0.81,0.50,0.06,0.95
19.041,-2.20,-0.01,-0.35,2.22
19.051,-2.36,-0.56,-0.17,2.43
19.061,-0.06,-0.03,-0.23,0.24
19.071,0.99,-0.43,0.12,1.09
19.082,0.60,-0.27,0.15,0.67
19.092,0.58,-0.01,0.05,0.58
19.102,-0.40,-0.11,-0.13,0.44
19.112,-1.24,-0.70,-0.34,1.47
19.122,-0.36,-0.32,0.22,0.53
19.132,1.95,0.96,0.95,2.37
19.142,1.71,0.80,-0.39,1.93
19.152,0.63,0.47,-0.47,0.92
19.162,-0.51,0.59,0.11,0.78
19.172,-2.80,-0.43,-0.20,2.84
19.182,-2.14,0.29,-0.21,2.17
19.192,-0.10,-0.29,-0.35,0.46
19.202,0.67,-0.35,-0.14,0.77
19.213,1.25,0.00,0.15,1.26
19.223,0.23,-0.62,0.28,0.72
19.233,-0.84,-0.08,0.08,0.85
19.243,-0.58,-0.90,-0.53,1.19
19.253,0.43,0.14,0.23,0.51
19.263,1.17,0.58,0.88,1.57
19.273,1.56,0.73,-0.42,1.77
19.283,0.47,0.99,-0.34,1.14
19.293,-1.33,0.49,-0.00,1.42
19.303,-2.59,0.49,-0.27,2.65
19.313,-1.89,-0.82,-0.46,2.11
19.323,0.36,0.05,-0.15,0.40
19.333,0.95,-0.40,0.37,1.09
19.344,0.91,-1.00,-0.20,1.36
19.354,0.19,-0.08,0.39,0.44
19.364,-1.07,-0.59,-0.15,1.23
19.374,-0.94,-0.34,-0.46,1.10
19.384,0.28,0.29,0.59,0.71
19.394,2.45,1.60,0.59,2.99
19.404,1.53,0.67,-0.57,1.76
19.414,0.20,0.71,-0.49,0.89
19.424,-1.26,0.19,0.31,1.31
19.434,-3.02,-0.61,-0.09,3.09
19.445,-1.99,-0.40,-0.46,2.09
19.455,0.17,-0.49,-0.19,0.55
19.465,1.25,0.18,0.03,1.26
19.475,1.19,-0.24,0.14,1.22
19.485,0.40,0.06,0.09,0.41
19.495,-0.75,-0.29,0.06,0.80
19.505,-1.10,-0.66,-0.37,1.33
19.515,-0.17,0.21,0.47,0.54
19.525,1.95,1.33,0.53,2.42
19.535,1.58,0.91,-0.71,1.95
19.545,0.26,0.31,-0.24,0.47
19.555,-0.96,0.19,0.13,0.99
19.566,-2.37,-0.26,0.10,2.39
19.576,-1.66,-0.54,-0.36,1.78
19.586,-0.42,-0.61,-0.51,0.90
19.596,0.54,0.37,0.31,0.72
19.606,1.42,0.27,-0.04,1.45
19.616,0.06,-0.54,-0.09,0.55
19.626,-0.65,-0.23,0.20,0.72
19.636,0.03,-0.25,-0.30,0.39
19.646,0.26,-0.25,0.43,0.56
19.656,1.09,0.65,0.70,1.45
19.666,1.03,0.90,-0.83,1.60
19.676,0.06,0.98,-0.29,1.02
19.686,-0.97,0.04,0.10,0.98
19.696,-2.10,-0.52,-0.10,2.16
19.707,-1.25,0.03,-0.31,1.29
19.717,-0.16,-0.64,-0.30,0.73
19.727,0.27,-0.26,0.06,0.38
19.737,0.70,-0.24,0.41,0.85
19.747,0.43,0.39,-0.13,0.60
19.757,-0.46,-0.28,-0.27,0.60
19.767,-0.47,-0.40,-0.01,0.62
19.777,0.78,0.20,0.43,0.91
19.787,1.60,0.64,0.42,1.77
19.797,0.71,0.38,-0.57,0.98
19.807,-0.02,0.50,-0.08,0.51
19.817,-1.24,0.54,0.05,1.35
19.828,-2.27,-0.14,-0.23,2.28
19.838,-1.07,0.20,-0.51,1.20
19.848,0.22,0.17,-0.15,0.32
19.858,0.74,-0.41,-0.00,0.84
19.868,0.59,-0.63,0.29,0.90
19.878,-0.00,-0.37,0.29,0.47
19.888,-0.52,-0.42,-0.29,0.73
19.898,-0.24,-0.30,0.05,0.39
19.908,0.31,0.20,0.09,0.38
19.918,1.43,0.69,0.65,1.71
19.928,1.21,1.00,-0.82,1.77
19.938,-0.25,0.34,0.14,0.44
19.949,-1.72,0.63,0.25,1.84
19.959,-2.60,-0.59,-0.83,2.79
19.969,-0.59,0.71,-0.24,0.96
19.979,0.48,-0.40,0.23,0.67
19.989,0.86,-0.66,-0.38,1.15
19.999,0.95,-0.09,0.70,1.18
20.009,-0.35,-0.57,-0.19,0.70
20.019,-1.36,-0.89,-0.17,1.64
20.029,-0.85,-0.45,-0.19,0.98
20.039,0.97,0.40,0.22,1.07
20.049,2.19,1.22,0.95,2.68
20.059,1.73,0.85,-0.53,2.00
20.069,-0.21,0.52,-0.56,0.79
20.080,-1.93,0.49,0.05,1.99
20.090,-3.16,0.09,-0.15,3.16
20.100,-1.44,-0.82,-0.66,1.78
20.110,0.73,-0.18,0.31,0.81
20.120,1.57,0.28,0.10,1.60
20.130,1.04,-1.11,-0.03,1.52
20.140,0.02,0.19,0.05,0.20
20.150,-1.15,-1.45,-0.23,1.87
20.160,-1.25,-0.06,0.06,1.25
20.170,-0.15,0.26,0.30,0.43
20.180,2.34,1.00,0.61,2.62
20.190,2.06,1.54,-0.76,2.68
20.200,0.21,0.09,-0.37,0.43
20.210,-1.37,1.12,0.28,1.79
20.221,-3.51,-0.50,-0.24,3.55
20.231,-1.55,-0.68,-0.58,1.79
20.241,0.29,-0.24,0.17,0.41
20.251,1.45,-0.48,-0.04,1.53
20.261,1.26,-0.08,0.17,1.28
20.271,-0.07,-0.56,0.30,0.64
20.281,-0.40,-0.32,-0.49,0.71
20.291,-1.15,-0.59,-0.06,1.29
20.301,0.57,0.62,0.74,1.12
20.311,1.73,1.02,0.32,2.03
20.322,1.04,0.81,-1.08,1.70
20.331,0.19,0.94,0.32,1.01
20.342,-2.41,0.83,-0.12,2.55
20.352,-2.49,-0.46,-0.70,2.62
20.362,-0.59,-0.73,-0.07,0.94
20.372,0.37,-0.50,0.11,0.63
20.382,1.29,-0.77,0.40,1.56
20.392,0.98,0.04,0.03,0.99
20.402,-0.89,-0.46,-0.08,1.01
20.412,-0.81,-0.14,-0.44,0.93
20.422,-0.44,-0.21,-0.15,0.51
20.432,1.27,0.68,0.90,1.70
20.442,2.12,0.89,0.42,2.34
20.452,0.04,-0.09,-1.31,1.31
20.463,-0.21,1.04,0.43,1.14
20.473,-2.15,0.74,0.30,2.29
20.483,-2.27,0.12,-1.15,2.54
20.493,-0.27,-0.45,0.30,0.60
20.503,0.74,0.02,-0.58,0.94
20.513,0.91,-1.09,0.43,1.48
20.523,0.63,-0.01,0.61,0.88
20.533,-0.57,-1.01,-0.40,1.23
20.543,-0.72,-0.38,-0.06,0.81
20.553,-0.21,0.37,-0.04,0.43
20.563,0.79,0.07,0.41,0.89
20.573,1.97,1.50,-0.00,2.47
20.584,0.39,0.27,-0.25,0.54
20.594,-0.76,0.87,-0.10,1.16
20.604,-2.22,0.27,-0.02,2.24
20.614,-1.72,0.07,-0.68,1.85
20.624,-0.30,-0.51,0.00,0.59
20.634,0.46,-0.58,-0.18,0.76
20.644,1.05,-0.45,0.35,1.20
20.654,0.45,-0.42,0.19,0.65
20.664,-0.93,-0.68,-0.17,1.17
20.674,-0.89,-0.42,-0.38,1.05
20.684,0.19,0.13,-0.24,0.34
20.694,1.55,0.95,1.46,2.33
20.705,1.67,0.86,-0.43,1.93
20.715,0.61,0.44,-0.92,1.19
20.725,-0.65,0.72,0.58,1.13
20.735,-2.87,0.05,-0.25,2.88
20.745,-2.37,-0.76,-0.66,2.58
20.755,0.23,0.09,0.09,0.27
20.765,0.67,-0.33,-0.14,0.76
20.775,1.08,-0.68,-0.01,1.28
20.785,0.75,0.20,0.55,0.95
20.795,-0.81,-0.92,-0.24,1.25
20.805,-1.15,-0.45,-0.34,1.28
20.815,0.13,0.41,0.59,0.73
20.826,1.87,0.90,0.41,2.11
20.836,1.47,1.05,-0.71,1.94
20.846,0.56,0.58,-0.14,0.81
20.856,-0.93,0.83,0.07,1.25
20.866,-2.79,-0.21,0.17,2.81
20.876,-2.14,-0.61,-0.82,2.37
20.886,-0.32,-0.55,-0.39,0.74
20.896,1.22,0.12,0.40,1.29
20.906,1.15,-0.88,0.00,1.45
20.916,0.47,-0.17,0.44,0.67
20.926,-0.24,-0.24,0.17,0.38
20.936,-0.93,-0.50,-0.70,1.27
20.947,-0.02,0.61,0.69,0.92
20.956,1.63,1.10,0.10,1.97
20.967,1.27,1.11,-0.80,1.87
20.977,0.18,0.92,0.56,1.10
20.987,-1.77,-0.26,-0.51,1.86
20.997,-2.46,0.03,-0.20,2.47
21.007,-1.21,-0.66,-0.15,1.39
21.017,0.16,-0.66,-0.39,0.78
21.027,1.14,0.15,0.60,1.30
21.037,1.24,-0.25,-0.05,1.26
21.047,-0.54,-0.38,-0.06,0.66
21.057,-1.12,-0.48,-0.27,1.25
21.067,-0.20,-0.23,-0.11,0.32
21.078,0.66,0.49,0.92,1.23
21.088,1.78,0.78,0.09,1.95
21.098,1.31,1.13,-0.89,1.94
21.108,-0.02,0.65,0.32,0.73
21.118,-1.55,-0.03,-0.41,1.61
21.128,-2.77,-0.42,0.10,2.80
21.138,-1.31,-0.40,-0.29,1.40
21.148,0.65,-0.28,-0.39,0.81
21.158,0.78,-0.34,0.25,0.89
21.168,0.61,-0.21,0.06,0.64
21.178,0.22,-0.20,0.09,0.31
21.188,-0.71,0.05,-0.01,0.71
21.199,-0.60,-0.46,-0.27,0.81
21.209,0.62,0.06,0.38,0.73
21.218,1.79,1.09,0.54,2.16
21.229,0.82,0.37,-0.67,1.12
21.239,-0.16,0.75,-0.01,0.77
21.249,-1.35,0.21,0.11,1.37
21.259,-2.64,-0.20,-0.55,2.71
21.269,-0.95,0.14,-0.23,0.99
21.282,0.16,-0.92,0.06,0.94
21.289,1.13,-0.53,1.44,1.90
21.299,0.36,-0.22,-0.17,0.46
21.309,-0.15,0.20,-2.76,2.77
