time,ax,ay,az,atotal
0.000,-1.61,0.50,-0.14,1.69
0.010,-1.57,-0.09,-0.40,1.62
0.020,-0.41,-0.66,0.76,1.09
0.030,0.62,0.23,-0.29,0.72
0.040,-0.39,-1.95,0.10,1.99
0.050,0.33,0.97,-0.78,1.29
0.061,-0.06,-1.42,0.46,1.49
0.071,0.41,0.68,0.08,0.79
0.081,0.12,0.10,0.24,0.29
0.091,1.41,0.62,0.23,1.56
0.101,0.99,1.56,-0.85,2.03
0.111,-0.37,-0.53,0.16,0.66
0.121,-0.31,0.04,0.21,0.38
0.131,-0.73,-0.15,0.38,0.84
0.141,-2.41,-0.31,-0.30,2.45
0.151,-0.77,0.35,-1.91,2.09
0.161,-0.32,-0.37,0.83,0.96
0.172,1.04,0.39,-0.42,1.18
0.182,0.90,-0.86,1.25,1.76
0.192,0.66,0.38,-0.34,0.83
0.202,-0.74,-0.90,0.30,1.20
0.212,0.37,1.02,-0.57,1.23
0.222,0.69,-0.02,0.20,0.72
0.232,1.09,1.00,-0.56,1.58
0.242,0.38,0.56,0.69,0.96
0.252,-0.62,-0.49,-0.17,0.81
0.262,-2.35,-0.54,0.03,2.41
0.272,-2.01,0.90,-1.12,2.47
0.283,-0.13,-0.35,-0.79,0.87
0.292,0.91,0.42,1.19,1.56
0.302,0.80,-0.17,0.06,0.82
0.313,0.04,-1.33,0.42,1.40
0.323,0.07,0.38,-1.17,1.23
0.333,-0.78,-2.24,0.24,2.39
0.343,0.55,1.79,1.09,2.16
0.353,2.20,1.03,-0.26,2.45
0.363,0.71,-0.08,-0.38,0.81
0.373,0.60,2.17,-0.23,2.27
0.383,-2.45,-1.20,-0.10,2.73
0.393,-2.10,0.54,-0.43,2.21
0.403,-1.04,-0.35,0.06,1.09
0.414,-0.51,-1.03,-0.59,1.30
0.424,1.36,0.89,0.19,1.64
0.434,0.86,-1.23,0.88,1.74
0.444,0.10,0.37,-1.02,1.09
0.454,-0.49,-0.59,0.47,0.91
0.464,-0.20,-0.15,-1.20,1.22
0.474,-0.50,-0.41,2.75,2.82
0.484,1.80,2.37,-1.47,3.32
0.494,0.95,-0.37,-0.68,1.23
0.504,1.16,1.64,0.89,2.19
0.514,-1.58,-0.57,-1.09,2.00
0.524,-2.83,-0.50,0.88,3.01
0.535,-0.86,0.58,-0.83,1.33
0.545,-1.09,-1.49,-0.76,2.00
0.555,0.42,0.10,0.59,0.73
0.565,1.65,-0.06,-0.01,1.65
0.575,0.91,-0.43,0.34,1.06
0.585,-0.57,-0.19,0.12,0.61
0.595,-0.28,-0.39,-0.27,0.56
0.605,0.03,0.11,0.64,0.65
0.615,1.27,1.27,-0.97,2.04
0.625,0.31,-0.19,0.39,0.53
0.635,0.97,1.70,-0.20,1.97
0.646,-1.34,-0.45,0.31,1.45
0.656,-1.40,-0.04,-0.38,1.45
0.666,-1.79,-0.17,0.21,1.81
0.676,-0.16,-0.34,-1.47,1.52
0.686,-0.62,-1.15,0.34,1.35
0.696,1.34,0.43,0.34,1.45
0.706,0.35,-0.47,0.70,0.92
0.716,-0.12,0.36,-0.70,0.80
0.727,-0.30,0.00,-0.08,0.31
0.736,1.59,0.66,0.13,1.73
0.746,1.31,0.89,0.05,1.58
0.757,0.26,-0.21,0.66,0.74
0.767,-0.73,0.32,-0.56,0.97
0.777,-1.30,-0.24,-0.27,1.35
0.787,-2.30,-0.67,0.11,2.40
0.797,-0.99,0.85,-1.63,2.09
0.807,0.36,-1.28,1.10,1.72
0.817,0.68,1.09,-0.14,1.30
0.827,0.36,-0.97,0.39,1.10
0.837,0.19,-0.17,-0.06,0.26
0.847,0.54,0.46,-0.66,0.96
0.857,-1.26,-0.68,0.39,1.48
0.867,2.07,1.65,0.15,2.65
0.878,0.67,-0.14,0.24,0.72
0.888,1.19,1.41,-0.37,1.89
0.898,-1.22,-0.84,0.32,1.51
0.908,-1.66,-0.27,-0.97,1.94
0.918,-2.13,-0.44,0.62,2.26
0.928,-0.23,0.71,-1.53,1.70
0.938,-0.09,-0.70,1.30,1.48
0.948,0.88,1.31,-0.88,1.81
0.958,0.59,-2.11,0.59,2.27
0.968,0.33,0.94,-0.42,1.08
0.978,-1.18,-1.61,0.61,2.09
0.989,0.01,0.39,0.06,0.40
0.999,2.17,1.66,-0.00,2.73
1.009,0.83,0.38,-0.48,1.03
1.019,0.71,1.37,-0.27,1.57
1.029,-0.83,-0.49,0.96,1.37
1.039,-2.02,-0.00,-1.27,2.38
1.049,-2.15,-1.36,1.08,2.77
1.059,-0.44,0.51,-2.09,2.20
1.069,0.17,-0.25,0.79,0.85
1.079,1.15,0.55,0.51,1.37
1.089,0.48,-0.68,-0.69,1.08
1.099,-0.43,0.61,0.40,0.84
1.110,0.03,-0.95,-0.61,1.13
1.120,-1.10,-1.24,0.84,1.86
1.130,1.67,1.29,0.23,2.13
1.140,1.63,-0.13,0.15,1.64
1.150,0.54,2.17,-1.10,2.49
1.160,-0.48,-0.39,0.53,0.82
1.170,-1.84,0.68,-1.15,2.28
1.180,-2.07,-0.47,0.73,2.24
1.190,-1.01,-0.69,-0.50,1.32
1.200,0.03,-0.21,-0.39,0.44
1.210,0.85,-0.35,0.70,1.15
1.220,0.95,0.28,-0.64,1.18
1.230,0.06,-0.93,0.35,1.00
1.241,0.14,0.30,-0.13,0.36
1.251,-0.10,-0.02,0.21,0.24
1.261,0.49,0.30,0.42,0.71
1.271,1.46,1.45,-0.53,2.12
1.281,-0.08,0.30,0.19,0.36
1.291,-0.50,0.12,-1.00,1.12
1.301,-1.26,-1.12,0.79,1.86
1.311,-1.84,-0.14,-0.10,1.85
1.321,-0.46,-0.07,-0.53,0.70
1.331,0.18,-0.46,-0.64,0.81
1.341,0.13,0.45,0.31,0.56
1.351,0.17,0.39,0.20,0.47
1.362,0.43,-0.31,0.27,0.59
1.372,0.00,0.28,-0.71,0.77
1.382,0.69,-1.35,1.09,1.87
1.392,1.86,1.87,-0.25,2.64
1.402,0.59,-0.40,-0.69,1.00
1.412,-0.96,0.39,-0.15,1.05
1.422,-0.99,0.32,1.47,1.81
1.432,-2.14,-0.16,-1.38,2.55
1.442,-0.44,-0.18,-0.53,0.71
1.452,0.02,0.10,-0.01,0.10
1.463,0.61,-0.26,-0.12,0.68
1.472,-0.01,-0.61,1.03,1.20
1.483,0.44,0.79,-1.17,1.48
1.493,-1.08,-1.15,0.70,1.73
1.503,0.42,1.42,-1.04,1.81
1.513,0.46,-1.25,1.58,2.06
1.523,1.89,1.53,-0.58,2.50
1.533,0.93,-0.23,0.76,1.22
1.543,0.08,0.74,-0.96,1.21
1.553,-2.31,-1.04,-0.39,2.56
1.563,-2.04,-0.19,0.22,2.07
1.573,-1.12,1.49,-0.50,1.93
1.583,0.21,-0.73,0.40,0.86
1.594,0.98,0.88,-0.55,1.43
1.603,0.93,0.07,-0.01,0.94
1.614,-0.34,-1.68,0.13,1.72
1.624,-0.85,-0.85,-0.13,1.21
1.634,-0.31,-0.63,0.77,1.04
1.644,1.02,0.94,0.17,1.40
1.654,0.77,1.06,0.43,1.38
1.664,1.34,1.65,-1.35,2.52
1.674,1.39,0.53,-0.59,1.60
1.684,-1.47,-0.35,1.49,2.12
1.694,-3.64,-0.29,-0.30,3.67
1.704,-0.94,-0.33,-1.24,1.59
1.715,-0.03,-0.59,-0.51,0.78
1.725,0.70,0.31,0.85,1.14
1.735,1.21,-0.64,0.12,1.37
1.745,-0.01,0.04,0.68,0.68
1.755,-0.06,-0.28,-1.38,1.41
1.765,-1.12,-1.74,-0.07,2.07
1.775,-0.17,1.40,0.96,1.70
1.785,1.96,0.72,-0.46,2.14
1.795,1.02,0.79,0.56,1.41
1.805,1.31,1.26,-0.51,1.89
1.815,-2.27,-1.03,-0.30,2.51
1.825,-1.69,-0.44,-0.50,1.81
1.836,-1.99,0.20,0.47,2.05
1.846,-0.52,-0.71,-1.30,1.57
1.856,0.42,-0.26,1.42,1.51
1.866,2.63,0.87,-0.81,2.88
1.876,-0.53,-1.38,0.82,1.68
1.886,0.87,0.75,-0.97,1.50
1.896,-1.63,-2.33,0.39,2.87
1.906,-0.86,0.87,0.07,1.23
1.916,2.03,1.15,1.06,2.56
1.926,0.64,-0.38,-1.25,1.45
1.936,1.12,1.81,-0.42,2.17
1.947,-0.54,-0.10,1.14,1.27
1.957,-2.45,1.42,-1.32,3.12
1.967,-2.10,-2.04,0.39,2.95
1.977,-0.11,0.36,-1.45,1.50
1.987,0.28,-0.74,0.91,1.21
1.997,1.00,-0.53,-0.03,1.13
2.007,0.60,0.44,0.45,0.87
2.017,-0.70,-1.28,-0.15,1.47
2.027,0.31,0.50,-0.51,0.78
2.037,0.83,0.49,0.71,1.20
2.047,0.91,0.01,0.24,0.94
2.057,0.19,0.46,-1.07,1.18
2.067,0.01,0.72,1.00,1.23
2.078,-0.96,0.79,-0.94,1.55
2.088,-3.03,-0.80,0.08,3.14
2.098,0.01,1.33,-0.46,1.41
2.108,0.08,-1.13,-0.41,1.21
2.118,0.62,0.25,0.14,0.68
2.128,0.79,-0.42,0.76,1.17
2.138,-0.65,-0.76,-0.03,1.00
2.148,0.22,0.71,-0.60,0.96
2.158,-0.18,-1.13,-0.08,1.15
2.169,0.61,0.54,0.83,1.16
2.179,1.58,1.85,-0.95,2.62
2.188,-0.05,-1.14,0.54,1.26
2.199,-0.41,0.92,-0.43,1.09
2.209,-1.22,-0.78,0.83,1.67
2.219,-1.92,0.43,-0.92,2.17
2.229,-0.65,-0.04,-0.24,0.70
2.239,-0.31,0.26,-1.41,1.47
2.249,0.72,-0.43,1.18,1.45
2.259,1.15,-0.03,-0.09,1.16
2.269,-0.52,-1.25,0.63,1.49
2.279,-0.43,0.01,-0.49,0.65
2.289,0.37,-0.04,-0.07,0.38
2.300,1.52,0.99,0.81,1.99
2.310,1.34,1.20,-1.02,2.06
2.320,0.54,0.43,0.56,0.89
2.330,-0.67,0.68,-0.32,1.01
2.340,-3.02,-2.05,-0.27,3.66
2.350,-1.02,0.74,-0.23,1.28
2.360,-0.47,-0.04,-0.39,0.61
2.370,0.04,-0.49,-0.07,0.50
2.380,1.12,0.54,0.14,1.25
2.390,0.46,-0.54,0.44,0.84
2.400,-0.20,-0.31,-0.39,0.53
2.410,-1.18,-0.46,0.22,1.28
2.421,-0.20,-0.60,0.12,0.65
2.431,1.56,0.25,-0.25,1.60
2.441,1.90,1.39,0.86,2.51
2.451,0.53,0.54,-1.08,1.32
2.461,-0.87,0.20,0.68,1.12
2.471,-1.99,1.24,-0.73,2.46
2.481,-2.56,-1.38,-0.72,2.99
2.491,-0.41,0.32,-0.29,0.60
2.501,0.18,-0.56,0.20,0.63
2.511,0.66,-0.26,0.04,0.71
2.521,1.57,-0.28,0.58,1.70
2.531,0.02,-0.61,-0.05,0.62
2.542,-0.34,-0.18,-0.35,0.52
2.552,-0.20,-0.23,0.76,0.82
2.562,0.57,0.73,-0.13,0.93
2.572,0.97,0.88,-0.49,1.39
2.582,0.58,0.80,0.06,0.99
2.592,-0.56,-0.15,0.29,0.64
2.602,-1.90,0.31,-0.16,1.93
2.612,-1.87,-0.03,-0.86,2.06
2.622,-0.77,-0.52,-1.02,1.38
2.632,-0.55,0.57,0.08,0.79
2.643,1.46,-0.92,1.28,2.14
2.653,1.87,0.74,-0.44,2.06
2.663,-1.03,-0.56,0.24,1.20
2.673,0.06,-0.80,-0.98,1.27
2.683,0.62,0.68,1.63,1.87
2.693,0.81,0.49,-0.55,1.09
2.703,0.03,-0.80,-0.50,0.94
2.713,1.08,1.59,0.61,2.02
2.723,-0.78,-0.13,-0.88,1.18
2.733,-2.69,-0.67,0.74,2.87
2.743,-0.93,1.25,-0.98,1.84
2.753,-0.37,-1.24,-1.14,1.72
2.763,0.46,0.66,1.09,1.36
2.773,0.14,-1.08,0.73,1.31
2.784,0.73,0.25,-1.37,1.57
2.794,-0.33,-0.49,1.08,1.23
2.804,0.45,0.14,-0.65,0.80
2.814,0.58,0.50,0.98,1.25
2.824,1.15,0.33,-0.66,1.37
2.834,0.40,0.49,-0.40,0.75
2.844,-0.21,1.10,0.93,1.45
2.854,-0.96,-0.66,-0.74,1.38
2.864,-1.76,-0.20,0.01,1.77
2.874,-1.46,0.56,-0.56,1.66
2.884,-0.56,-1.23,-0.90,1.62
2.895,0.55,0.43,0.97,1.19
2.905,0.80,-0.41,0.08,0.90
2.915,0.52,-0.58,0.52,0.94
2.925,0.14,0.98,-0.57,1.14
2.935,-0.43,-1.88,-0.91,2.13
2.945,0.45,1.43,1.28,1.97
2.955,1.47,0.70,0.31,1.65
2.965,0.62,0.56,-1.02,1.32
2.975,-0.16,1.01,0.74,1.26
2.985,-1.47,-0.66,-1.16,1.99
2.995,-2.22,-0.44,0.59,2.34
3.005,-0.89,0.34,-0.37,1.03
3.016,0.24,-0.66,-0.45,0.83
3.026,0.43,0.03,0.29,0.52
3.036,0.63,-0.10,-0.22,0.68
3.046,-0.02,0.27,0.42,0.50
3.056,-0.96,-0.98,-0.97,1.68
3.066,-0.05,-0.47,1.13,1.22
3.076,1.35,1.21,0.33,1.85
3.086,1.18,0.34,-0.39,1.29
3.096,1.03,0.65,-0.29,1.25
3.106,-0.42,0.52,-0.17,0.69
3.116,-1.31,-0.23,-0.34,1.38
3.126,-2.62,-1.52,1.26,3.28
3.136,-1.21,1.56,-2.06,2.85
3.147,0.69,-1.26,0.28,1.47
3.157,0.97,1.91,0.10,2.15
3.167,0.79,-1.11,-0.12,1.37
3.177,-1.16,-1.13,0.80,1.80
3.187,0.62,0.33,-0.97,1.20
3.197,-1.17,-2.58,1.52,3.21
3.207,1.80,2.45,-0.85,3.16
3.217,1.32,0.23,-0.05,1.35
3.227,0.39,1.79,-0.44,1.89
3.237,-0.10,1.00,0.53,1.14
3.248,-1.51,-1.13,0.37,1.92
3.258,-1.52,0.08,-1.17,1.92
3.268,-1.21,-1.60,-0.49,2.07
3.278,-0.62,0.09,0.30,0.70
3.288,0.19,0.53,0.70,0.89
3.298,0.60,-0.45,-0.77,1.08
3.308,0.42,0.73,0.12,0.85
3.318,0.39,-0.33,-0.65,0.83
3.328,0.43,-0.35,0.84,1.01
3.338,0.62,-0.06,1.13,1.29
3.349,0.64,0.05,-1.32,1.47
3.358,-0.02,1.48,-0.02,1.48
3.369,-0.52,0.41,0.14,0.67
3.379,-1.15,-0.62,-0.66,1.46
3.389,-1.19,0.23,0.86,1.49
3.399,-0.52,-0.52,-1.03,1.26
3.409,0.12,-0.84,0.13,0.86
3.419,-0.18,0.34,0.09,0.39
3.429,0.15,-0.24,-0.50,0.57
3.439,0.22,0.51,0.45,0.71
3.449,-0.09,-0.42,-0.14,0.45
3.459,0.53,0.10,0.25,0.59
3.469,1.71,0.40,0.51,1.82
3.480,0.77,0.35,-0.90,1.23
3.490,-0.56,-0.05,1.10,1.24
3.500,-0.28,0.87,-0.97,1.33
3.510,-1.47,-1.02,0.16,1.79
3.520,-1.79,0.94,-0.38,2.06
3.530,-0.28,0.07,-0.60,0.67
3.540,-0.34,0.03,-0.19,0.39
3.550,0.80,-0.56,0.26,1.01
3.560,0.87,-0.66,0.37,1.15
3.570,-0.30,-0.35,-0.21,0.51
3.580,-0.61,-0.71,0.49,1.06
3.590,0.92,0.66,-1.08,1.56
3.600,0.96,-0.42,2.04,2.29
3.611,1.33,2.71,-2.28,3.79
3.621,0.02,-0.48,1.05,1.15
3.631,-1.21,1.43,-0.67,2.00
3.641,-2.26,-0.52,0.54,2.38
3.651,-1.54,-0.69,-0.42,1.74
3.661,0.50,0.54,-0.88,1.14
3.671,0.83,-1.60,0.70,1.93
3.681,0.19,0.41,-0.21,0.49
3.691,0.25,-0.69,0.62,0.96
3.701,-1.37,-0.00,-0.75,1.56
3.711,-0.12,-0.26,0.02,0.28
3.721,0.75,0.36,-0.01,0.83
3.732,1.16,1.09,0.15,1.60
3.742,1.14,-0.07,0.78,1.39
3.752,0.53,1.38,-1.28,1.96
3.762,-0.66,-1.28,0.82,1.66
3.772,-1.84,0.44,-0.73,2.03
3.782,-2.23,-0.70,0.01,2.34
3.792,-0.48,0.27,-0.02,0.55
3.802,0.61,0.17,-0.31,0.70
3.812,0.38,-0.73,0.28,0.87
3.822,1.06,0.40,-0.16,1.14
3.832,0.31,-0.51,-0.52,0.79
3.843,-1.18,-0.93,0.65,1.63
3.853,-0.55,0.34,-0.45,0.79
3.863,0.94,-0.42,1.16,1.56
3.873,1.99,2.21,-0.38,3.00
3.883,0.76,-0.12,-1.32,1.53
3.893,0.02,0.19,0.68,0.71
3.903,-2.09,0.89,0.90,2.44
3.913,-3.17,-1.07,-1.43,3.64
3.923,0.03,0.11,-0.52,0.53
3.933,0.31,0.03,0.10,0.33
3.943,0.33,-1.01,0.13,1.08
3.953,0.97,0.30,1.01,1.44
3.964,0.78,-1.19,-0.81,1.64
3.974,-0.99,-0.53,-0.10,1.13
3.984,0.02,-0.32,0.85,0.91
3.994,1.53,0.97,0.13,1.82
4.004,-0.16,0.55,-0.54,0.78
4.014,0.64,1.74,-1.32,2.28
4.024,-0.36,0.49,1.10,1.26
4.034,-1.87,1.51,-0.31,2.42
4.044,-1.65,-1.53,-0.04,2.25
4.054,-0.13,-0.07,-0.95,0.96
4.064,0.73,-0.97,0.02,1.21
4.075,-0.10,-1.28,1.27,1.81
4.085,0.12,1.29,-0.95,1.61
4.095,-0.09,-2.95,1.00,3.11
4.105,0.22,1.45,-1.48,2.09
4.115,-0.39,-0.11,1.27,1.34
4.125,1.45,1.00,-0.50,1.83
4.135,1.72,1.32,0.22,2.18
4.145,0.15,1.43,-0.61,1.56
4.155,-0.87,0.09,0.59,1.05
4.165,-2.69,-0.50,0.31,2.75
4.175,-1.00,1.06,-2.55,2.94
4.185,-1.22,-3.28,1.86,3.97
4.196,1.36,1.31,-2.18,2.89
4.206,-0.15,-3.05,3.00,4.28
4.216,0.76,1.16,-1.21,1.84
4.226,0.03,0.02,-0.38,0.38
4.236,-0.32,-0.66,0.88,1.15
4.246,1.10,3.21,-0.63,3.46
4.256,0.73,-0.49,0.15,0.89
4.266,0.37,1.30,-0.44,1.42
4.276,0.47,0.87,1.05,1.44
4.286,-1.99,-1.83,-0.97,2.87
4.296,-1.00,0.19,-0.41,1.10
4.306,-0.93,-0.66,0.73,1.35
4.317,-0.43,0.52,-1.88,2.00
4.327,0.40,-0.80,1.77,1.99
4.337,0.79,1.00,0.08,1.27
4.347,0.30,-0.35,-1.90,1.96
4.357,-2.15,-1.65,1.25,2.99
4.367,2.11,1.58,-0.96,2.81
4.377,-0.68,-2.12,1.47,2.67
4.387,2.61,2.09,1.40,3.62
4.397,0.62,0.27,-3.06,3.14
4.408,-2.15,-1.14,1.81,3.03
4.417,0.64,2.92,-2.39,3.83
4.428,-2.13,-2.76,2.84,4.50
4.438,-0.97,1.94,-2.25,3.13
4.448,-1.48,-1.24,0.20,1.94
4.458,1.17,1.16,-0.72,1.81
4.468,1.62,-0.81,1.12,2.13
4.478,-0.26,-0.91,0.76,1.21
4.488,-0.92,-0.33,-1.51,1.80
4.498,-0.95,-2.07,0.79,2.41
4.508,2.00,2.50,0.82,3.31
4.518,1.56,0.04,-1.09,1.90
4.528,-0.06,0.17,0.08,0.20
4.538,1.21,3.55,-1.55,4.06
4.549,-2.82,-1.58,3.30,4.62
4.559,-1.01,2.28,-3.01,3.91
4.568,-2.32,-2.44,-0.14,3.37
4.579,0.58,-0.85,1.03,1.46
4.589,-0.42,0.35,-0.46,0.71
4.599,0.86,-1.61,-0.24,1.84
4.609,-0.81,-0.30,-0.57,1.03
4.619,2.77,-0.04,2.10,3.47
4.629,0.63,1.73,-1.15,2.17
4.639,-0.39,-0.98,1.70,2.00
4.649,0.74,2.55,-2.62,3.73
4.660,0.25,-0.67,1.62,1.77
4.670,-1.43,0.81,-0.87,1.86
4.680,-0.40,0.14,0.05,0.43
4.690,-2.97,-2.38,1.08,3.95
4.700,1.59,2.22,-2.77,3.89
4.710,-1.16,-2.57,2.82,3.99
4.720,1.09,2.67,-3.12,4.25
4.730,-1.04,-2.85,2.06,3.67
4.740,0.81,1.57,0.68,1.90
4.750,0.61,0.21,-0.74,0.99
4.760,-0.23,-0.94,-0.15,0.98
4.770,1.45,0.48,0.65,1.66
4.781,0.71,1.01,-0.20,1.25
4.791,-0.30,0.33,-0.79,0.91
4.801,-0.61,-1.10,1.43,1.91
4.811,-1.14,1.26,-1.56,2.31
4.821,-2.34,-0.84,0.21,2.49
4.831,-0.01,1.43,-2.29,2.70
4.841,-0.34,-2.10,3.53,4.12
4.851,0.85,2.12,-2.17,3.15
4.861,0.67,-2.26,-0.02,2.35
4.871,-0.41,0.37,1.90,1.97
4.881,1.26,1.29,-3.22,3.69
4.892,-1.55,-3.08,3.06,4.61
4.901,2.30,3.06,-0.12,3.83
4.912,-0.20,-1.68,-0.87,1.90
4.922,0.21,0.92,-0.20,0.96
4.932,0.41,1.42,0.30,1.51
4.942,-1.45,-0.67,-0.08,1.60
4.952,-1.91,1.64,-0.69,2.61
4.962,-1.49,-1.02,-0.93,2.03
4.972,0.26,0.16,0.89,0.94
4.982,1.48,0.49,-0.91,1.81
4.992,-1.06,-3.30,2.19,4.10
5.002,1.02,1.97,-1.83,2.88
5.012,-0.39,-2.77,0.54,2.85
5.022,-0.28,1.65,-0.14,1.68
5.033,2.89,0.67,1.05,3.15
5.043,0.21,0.38,-0.33,0.55
5.053,-0.01,1.55,-1.13,1.92
5.063,-2.07,-1.15,0.29,2.39
5.073,-0.94,1.87,-0.50,2.15
5.083,-1.44,-1.68,0.53,2.28
5.093,0.35,0.32,-0.75,0.88
5.103,-0.20,-1.01,-0.53,1.15
5.113,0.92,-0.70,0.78,1.40
5.123,-0.11,-0.17,0.18,0.28
5.133,-1.05,-0.54,0.06,1.18
5.144,0.94,0.58,-1.05,1.53
5.154,0.44,-0.03,1.68,1.74
5.164,1.46,2.34,-1.31,3.05
5.174,0.76,-0.48,1.53,1.77
5.184,-0.40,1.50,-2.12,2.63
5.194,-1.06,-1.65,1.40,2.41
5.204,-1.90,-0.10,-0.65,2.02
5.214,-1.11,-0.17,-0.06,1.12
5.224,-0.68,0.53,-1.01,1.33
5.234,0.14,0.44,-0.27,0.53
5.244,0.43,0.06,1.16,1.24
5.254,1.34,0.29,-0.08,1.38
5.265,-0.04,-1.14,-0.27,1.17
5.275,-0.05,-0.73,-0.54,0.91
5.285,0.45,-0.05,0.83,0.95
5.295,0.94,1.17,1.52,2.14
5.305,0.19,0.29,-2.66,2.68
5.315,0.02,-0.31,2.01,2.03
5.325,-0.13,1.86,-2.41,3.04
5.335,-3.09,-2.44,1.17,4.10
5.345,-0.64,2.10,-1.48,2.65
5.355,-0.37,-0.34,1.21,1.31
5.365,1.41,0.14,-0.57,1.53
5.376,0.02,-0.74,0.45,0.86
5.386,0.09,-0.72,-0.85,1.12
5.396,-0.86,-1.07,0.85,1.61
5.406,0.52,0.94,-1.35,1.73
5.416,1.07,-0.47,2.88,3.11
5.426,1.85,2.86,-2.09,3.99
5.436,-0.55,-0.28,0.77,0.99
5.446,-0.21,1.60,-1.02,1.90
5.456,-1.11,-1.54,-0.29,1.92
5.466,-1.69,-1.22,1.40,2.51
5.476,-0.20,1.07,-1.18,1.60
5.486,-1.71,-2.03,0.97,2.83
5.497,0.49,1.80,-2.65,3.24
5.507,1.00,-0.79,2.15,2.50
5.517,0.71,1.60,-0.66,1.87
5.527,-0.34,-1.03,0.01,1.09
5.537,0.14,-0.87,1.28,1.55
5.547,1.48,0.72,-0.62,1.76
5.557,0.10,-0.16,-2.00,2.01
5.567,-0.55,0.32,3.49,3.55
5.577,1.31,2.57,-3.22,4.32
5.587,-1.26,-2.25,0.71,2.67
5.597,-2.81,1.14,1.37,3.33
5.607,-0.10,1.52,-3.16,3.51
5.618,-0.25,-2.54,2.43,3.52
5.628,0.57,1.71,-2.13,2.79
5.638,0.53,-2.79,1.68,3.30
5.648,-0.13,0.73,0.11,0.75
5.658,-0.71,-0.38,-0.60,1.00
5.668,-0.44,-0.47,0.20,0.67
5.678,2.25,0.53,1.43,2.72
5.688,1.26,0.11,-0.76,1.48
5.698,-0.53,0.49,-1.48,1.64
5.708,0.27,1.01,1.39,1.74
5.718,-1.21,0.44,-1.08,1.68
5.729,-3.31,-0.05,0.80,3.41
5.739,0.05,1.34,-1.80,2.24
5.749,0.30,-1.00,1.11,1.52
5.759,1.60,-0.49,-0.60,1.78
5.769,-0.49,-1.80,0.63,1.97
5.779,0.07,0.40,-0.21,0.46
5.789,-1.15,-1.66,0.16,2.03
5.799,-0.26,1.18,-1.43,1.87
5.809,1.83,0.32,2.70,3.28
5.819,2.05,1.99,-1.06,3.05
5.829,0.53,-0.12,-0.94,1.09
5.839,-0.38,0.46,0.05,0.60
5.850,-2.02,0.51,-0.32,2.11
5.860,-3.38,-0.81,1.54,3.80
5.870,0.55,0.55,-2.42,2.54
5.880,0.28,-1.75,1.26,2.17
5.890,0.61,1.08,-0.97,1.58
5.900,0.32,-2.40,1.11,2.66
5.910,0.19,1.06,-0.31,1.12
5.920,0.16,-0.45,-0.62,0.78
5.930,-1.70,-1.77,0.85,2.60
5.940,1.60,2.80,-0.29,3.24
5.950,2.52,0.52,1.21,2.84
5.960,0.01,0.53,-2.49,2.55
5.970,-0.75,0.05,1.49,1.67
5.981,-1.36,1.47,-1.16,2.31
5.991,-3.05,-2.03,1.48,3.95
6.001,0.15,1.03,-2.54,2.74
6.011,0.70,-1.81,1.40,2.40
6.021,0.66,1.46,-0.84,1.81
6.031,0.49,-0.59,0.99,1.26
6.041,0.06,-0.91,-0.02,0.91
6.051,-1.00,-0.30,-0.73,1.28
6.061,-0.33,-1.06,0.52,1.22
6.071,1.84,1.62,0.77,2.57
6.081,1.00,0.90,-0.39,1.40
6.092,0.53,0.39,-1.31,1.47
6.102,-0.91,1.37,1.27,2.08
6.112,-2.46,0.32,0.19,2.49
6.122,-1.50,-0.22,-1.65,2.25
6.132,0.15,-1.11,-0.99,1.49
6.142,0.72,-0.45,1.66,1.86
6.152,0.76,0.14,-0.76,1.08
6.162,-1.39,-1.61,2.13,3.02
6.172,0.62,-0.02,-2.13,2.22
6.182,-0.15,-0.38,0.53,0.67
6.192,1.22,1.08,-0.93,1.87
6.202,1.05,0.05,2.18,2.42
6.213,1.22,2.61,-1.80,3.40
6.223,-1.25,-1.48,1.13,2.25
6.233,0.60,2.78,-1.46,3.20
6.243,-2.88,-2.11,1.03,3.72
6.253,-1.94,0.19,-1.75,2.62
6.263,0.94,-0.06,0.73,1.19
6.273,0.12,-1.27,0.68,1.44
6.283,0.29,0.23,-1.23,1.29
6.293,0.38,-0.42,1.28,1.40
6.303,0.21,0.75,-1.27,1.49
6.314,-1.20,-1.06,0.40,1.65
6.323,0.97,0.39,0.40,1.11
6.334,1.36,0.53,0.57,1.57
6.344,0.41,0.79,-1.21,1.50
6.354,-0.23,0.19,0.09,0.31
6.364,-0.52,0.17,0.49,0.74
6.374,-1.04,-0.32,-0.53,1.21
6.384,-1.34,-0.16,0.60,1.47
6.394,-0.78,-0.10,-0.76,1.10
6.404,0.32,0.42,-1.22,1.33
6.414,-0.58,-2.03,1.00,2.33
6.425,1.34,1.46,0.01,1.99
6.434,-0.47,-1.52,0.13,1.60
6.445,-0.06,-0.01,0.34,0.34
6.455,0.98,1.36,-0.27,1.70
6.465,1.14,-0.86,0.63,1.56
6.475,1.03,2.25,-2.23,3.33
6.485,-0.29,-0.39,2.08,2.14
6.495,-0.89,0.41,-0.59,1.14
6.505,-2.27,-0.03,-0.74,2.39
6.515,-1.73,-1.14,0.71,2.19
6.525,0.37,1.28,-2.30,2.66
6.535,-0.14,-1.77,2.37,2.96
6.545,1.79,0.77,-2.06,2.84
6.556,-0.40,-1.26,2.54,2.86
6.566,0.14,0.69,-1.51,1.66
6.576,-1.19,-1.41,-0.79,2.01
6.586,1.40,0.89,2.54,3.04
6.596,1.64,2.34,-1.69,3.32
6.606,0.13,-0.87,-0.30,0.92
6.616,0.50,1.13,1.06,1.63
6.626,-0.80,1.13,-0.52,1.48
6.636,-3.73,-2.37,-0.32,4.43
6.646,-1.21,0.35,-1.23,1.76
6.656,0.93,0.24,1.06,1.43
6.666,0.64,0.14,-0.31,0.72
6.676,0.33,-0.87,0.14,0.94
6.686,0.32,0.05,-0.37,0.49
6.697,0.10,-0.03,0.20,0.23
6.707,-0.54,-0.20,-0.02,0.57
6.717,0.81,0.06,1.14,1.40
6.727,1.77,1.15,-0.09,2.11
6.737,0.69,0.82,-2.19,2.43
6.747,-1.14,-0.25,1.60,1.98
6.757,-0.83,1.09,-0.60,1.49
6.767,-3.18,-1.69,0.77,3.68
6.777,-0.10,1.24,-2.04,2.39
6.787,-0.09,-1.82,0.39,1.86
6.798,0.91,0.45,0.38,1.08
6.808,1.06,0.56,0.17,1.21
6.818,-0.25,-1.59,0.50,1.68
6.828,-0.75,1.07,-1.26,1.82
6.838,0.63,-0.58,0.84,1.20
6.848,0.67,0.75,-0.22,1.03
6.858,1.02,0.27,0.89,1.37
6.868,1.10,1.15,-1.03,1.90
6.878,-0.70,-0.28,-0.19,0.78
6.888,-1.46,0.29,0.30,1.52
6.898,-1.96,-0.15,-0.26,1.98
6.909,-0.84,-0.31,-0.02,0.90
6.918,0.02,0.84,-1.37,1.60
6.929,0.14,-1.68,0.60,1.79
6.939,0.71,0.56,1.75,1.97
6.949,0.44,0.56,-2.47,2.57
6.959,-1.71,-2.88,1.76,3.78
6.969,1.39,2.50,-2.02,3.50
6.979,1.06,-2.10,3.19,3.96
6.989,1.64,2.14,-1.50,3.08
6.999,-0.84,-0.07,-0.61,1.04
7.009,-0.39,0.36,0.09,0.54
7.019,-0.50,1.15,-0.33,1.30
7.029,-2.09,-0.62,0.97,2.38
7.040,-0.35,0.25,-1.89,1.94
7.050,-0.74,-1.44,0.52,1.70
7.060,0.84,0.57,-0.39,1.08
7.070,0.06,-2.09,1.66,2.67
7.080,0.20,1.04,-1.25,1.64
7.090,-0.56,-1.39,0.01,1.50
7.100,0.87,1.19,-0.05,1.48
7.110,1.20,0.63,1.28,1.87
7.120,1.20,0.45,-1.07,1.67
7.130,-0.04,1.17,-0.06,1.17
7.140,-0.83,0.14,0.03,0.84
7.151,-1.83,-0.26,0.21,1.86
7.161,-1.33,0.63,-1.42,2.05
7.171,-0.55,-1.66,0.52,1.83
7.181,0.67,0.98,-0.47,1.28
7.191,-0.55,-1.68,1.03,2.05
7.201,1.44,0.54,-0.57,1.64
7.211,-0.64,-1.14,0.44,1.38
7.221,-0.28,0.19,-1.30,1.35
7.231,0.67,0.59,1.85,2.05
7.241,1.43,1.68,-0.55,2.27
7.251,0.59,0.07,-0.63,0.87
7.262,0.66,1.24,0.79,1.61
7.272,-0.61,-0.49,-1.19,1.42
7.282,-2.71,-1.97,0.78,3.44
7.292,-1.26,1.18,-0.26,1.75
7.302,-0.65,-0.53,-0.49,0.97
7.312,0.37,0.86,-0.45,1.04
7.322,0.80,-0.35,0.54,1.03
7.332,0.51,0.32,-0.52,0.79
7.342,-0.44,-1.00,0.96,1.45
7.352,-0.05,-0.67,-0.79,1.04
7.362,-0.05,-0.63,1.02,1.20
7.372,1.91,1.61,-0.02,2.50
7.382,1.17,0.89,-0.62,1.60
7.393,-0.50,0.99,0.15,1.12
7.403,-1.08,0.33,-0.24,1.15
7.413,-1.67,-0.63,-0.26,1.80
7.423,-1.53,-0.32,-0.16,1.57
7.433,-0.04,-0.65,-0.73,0.98
7.443,0.44,0.12,1.10,1.19
7.453,0.81,0.44,-0.30,0.97
7.463,-0.08,-0.76,-0.15,0.77
7.473,-0.34,0.27,-0.30,0.53
7.483,-0.02,-0.81,-0.14,0.82
7.493,0.55,-0.21,0.74,0.94
7.503,1.21,0.93,0.16,1.53
7.514,0.53,0.37,-0.10,0.65
7.524,0.58,1.85,-0.87,2.13
7.534,-0.54,-0.29,0.36,0.71
7.544,-2.01,-0.90,-0.59,2.28
7.554,-1.41,0.23,0.65,1.57
7.564,0.05,-0.08,-1.58,1.59
7.574,-1.23,-2.16,1.15,2.74
7.584,0.78,1.41,-0.04,1.61
7.594,0.81,-0.96,0.02,1.25
7.604,-0.16,0.79,-0.86,1.18
7.614,-0.21,-1.22,0.71,1.42
7.624,0.59,0.64,0.05,0.87
7.635,1.30,1.00,0.29,1.66
7.645,0.45,-0.11,-0.23,0.52
7.655,0.26,1.21,-0.45,1.32
7.665,-0.55,-0.36,0.58,0.88
7.675,-1.53,0.30,-0.75,1.73
7.685,-2.12,-0.75,-0.06,2.25
7.695,-0.09,0.50,-0.91,1.05
7.705,0.33,-0.09,1.02,1.07
7.715,0.63,-0.27,-0.49,0.84
7.725,0.35,-0.86,0.65,1.13
7.735,-0.65,-0.02,-0.30,0.72
7.746,-0.42,-0.50,-0.70,0.96
7.756,0.91,-0.29,1.25,1.57
7.766,1.69,1.38,-0.09,2.19
7.776,0.95,0.27,-0.28,1.03
7.786,-0.34,1.12,-0.23,1.20
7.796,-1.46,0.62,0.12,1.59
7.806,-2.53,-0.41,-0.61,2.63
7.816,-0.81,0.20,-0.39,0.92
7.826,0.28,-0.33,-0.02,0.44
7.836,0.68,-0.65,-0.37,1.01
7.846,0.87,-0.54,1.58,1.89
7.856,-0.13,-0.04,-1.00,1.01
7.867,-1.41,-1.90,0.09,2.37
7.877,0.09,1.09,-0.06,1.09
7.887,1.28,0.75,0.21,1.50
7.897,1.40,1.16,0.11,1.83
7.907,1.35,0.92,-0.52,1.71
7.917,0.05,0.31,0.25,0.40
7.927,-1.74,-0.38,0.02,1.78
7.937,-2.91,-0.85,-0.16,3.03
7.947,-0.66,0.22,-1.08,1.29
7.957,-0.15,0.23,0.31,0.41
7.967,0.91,0.04,0.04,0.91
7.978,0.51,-0.78,0.28,0.97
7.988,-0.08,-0.01,-0.23,0.24
7.998,-0.06,-1.53,-0.15,1.54
8.008,-0.56,-0.19,0.25,0.64
8.018,0.46,-0.14,0.60,0.77
8.028,1.98,1.56,-0.09,2.52
8.038,0.77,1.47,-0.38,1.70
8.048,-0.21,0.60,-0.77,0.99
8.058,-1.16,0.64,0.85,1.57
8.068,-2.91,-0.57,-0.62,3.03
8.078,-0.72,-1.09,-0.73,1.50
8.089,0.14,-0.03,0.23,0.27
8.099,0.80,-0.87,0.18,1.19
8.109,1.10,0.43,0.21,1.20
8.119,-0.48,-0.51,0.15,0.72
8.129,-0.07,0.04,-1.18,1.19
8.139,-0.49,-0.30,1.00,1.15
8.149,0.51,0.41,-0.03,0.65
8.159,1.92,0.13,0.81,2.08
8.169,0.94,1.24,-1.26,2.00
8.179,-0.29,0.30,0.74,0.86
8.189,-1.68,0.71,-0.58,1.92
8.199,-2.64,0.12,-0.91,2.80
8.209,-0.84,-0.39,-0.22,0.95
8.219,0.14,-0.30,0.27,0.43
8.230,0.62,-0.79,1.07,1.47
8.240,0.91,-0.12,-1.12,1.45
8.250,-0.24,-0.83,0.31,0.91
8.260,-0.18,-0.23,-0.71,0.77
8.270,-0.39,-0.63,0.73,1.04
8.280,0.77,1.09,0.62,1.47
8.290,1.22,0.49,-0.22,1.33
8.300,0.87,0.44,-0.49,1.09
8.310,0.19,1.51,-0.89,1.77
8.320,-1.74,-0.82,1.44,2.40
8.331,-1.91,0.75,-1.03,2.30
8.341,-1.47,-0.78,0.38,1.70
8.351,0.63,0.36,-2.18,2.30
8.361,0.47,-1.78,1.82,2.59
8.371,1.12,0.99,0.07,1.49
8.381,-1.00,-1.71,0.22,1.99
8.391,0.22,0.47,-0.71,0.88
8.401,-0.20,-0.54,0.82,1.00
8.411,1.35,1.41,-0.23,1.97
8.421,1.04,0.68,-1.04,1.62
8.431,0.21,-0.03,0.85,0.88
8.441,0.27,2.43,-1.19,2.72
8.452,-2.08,-1.74,2.45,3.66
8.462,-0.75,1.30,-2.55,2.95
8.472,-2.22,-1.49,-0.00,2.67
8.482,0.58,-0.04,-0.61,0.85
8.492,0.35,-0.74,0.96,1.26
8.502,0.58,-0.76,0.66,1.16
8.512,-0.07,-0.24,-0.23,0.34
8.522,0.44,0.01,-0.70,0.83
8.532,-0.01,0.59,0.46,0.74
8.542,1.28,1.35,-0.00,1.86
8.552,0.75,0.15,0.22,0.80
8.563,0.97,1.39,-0.64,1.81
8.573,-1.09,-1.17,0.28,1.63
8.582,-2.12,-0.66,-0.19,2.22
8.593,-1.46,-0.26,0.15,1.49
8.603,-0.47,0.22,-0.71,0.88
8.613,0.08,0.44,-0.43,0.62
8.623,0.49,-0.33,0.13,0.60
8.633,0.68,-0.16,0.74,1.02
8.643,0.13,0.20,-0.52,0.57
8.653,-0.74,-1.72,-0.13,1.87
8.663,0.62,0.81,0.63,1.20
8.673,1.50,0.82,-0.01,1.71
8.683,0.51,0.46,-0.11,0.69
8.693,0.65,1.41,-0.43,1.61
8.704,-1.46,-0.56,0.44,1.63
8.714,-1.90,0.24,-0.81,2.08
8.724,-1.93,-0.96,0.11,2.16
8.734,0.46,0.43,-0.81,1.02
8.744,0.26,-0.54,0.68,0.90
8.754,0.96,0.21,-0.42,1.06
8.764,0.16,-0.68,0.31,0.76
8.774,-0.01,0.30,-0.04,0.30
8.784,-0.68,-0.59,-0.67,1.13
8.794,0.31,-0.03,1.18,1.22
8.804,2.11,1.83,-0.25,2.81
8.815,0.37,-0.09,-0.06,0.38
8.825,0.85,1.64,-0.49,1.91
8.835,-1.78,-1.50,0.69,2.43
8.845,-1.65,0.93,-0.76,2.04
8.855,-1.55,-0.70,-0.24,1.72
8.865,-1.06,0.03,-0.94,1.41
8.875,0.37,-0.33,0.55,0.74
8.885,0.85,-0.49,0.38,1.05
8.895,1.40,0.36,0.04,1.45
8.905,-0.65,-1.21,0.08,1.37
8.915,-0.28,-0.07,-0.94,0.98
8.925,-0.46,0.20,1.01,1.13
8.936,1.74,0.96,-0.03,1.99
8.946,1.14,0.09,0.01,1.14
8.956,0.81,1.95,-0.75,2.24
8.966,-1.67,-1.17,0.77,2.17
8.976,-1.57,0.29,-0.82,1.79
8.986,-2.39,-0.66,0.08,2.48
8.996,0.23,-0.33,-1.77,1.82
9.006,0.69,-1.01,2.24,2.55
9.016,1.00,1.68,-0.89,2.15
9.026,-1.26,-2.06,-0.78,2.54
9.037,0.36,0.56,0.46,0.80
9.047,-0.07,-0.41,0.37,0.55
9.057,0.44,0.11,0.62,0.77
9.067,2.57,1.41,0.36,2.95
9.077,0.60,-0.05,-1.08,1.24
9.087,-0.65,1.50,-0.92,1.87
9.097,-1.73,-0.44,1.63,2.42
9.107,-2.22,0.69,-1.16,2.59
9.117,-1.01,-0.31,-0.14,1.07
9.127,0.80,-0.54,-0.96,1.36
9.137,0.35,-0.39,0.62,0.81
9.147,0.40,-1.19,1.00,1.60
9.157,-0.10,-0.19,-0.28,0.36
9.168,-0.50,-0.50,-0.08,0.71
9.178,0.46,0.61,-0.98,1.24
9.188,1.08,0.98,0.60,1.57
9.198,1.43,0.90,0.92,1.92
9.208,0.47,1.06,-1.41,1.82
9.218,-1.06,-0.73,0.93,1.59
9.228,-1.24,0.61,-1.38,1.95
9.238,-2.50,-1.25,1.16,3.03
9.248,-0.10,1.06,-1.93,2.20
9.258,-0.53,-1.73,1.19,2.17
9.269,1.37,1.26,-0.64,1.96
9.279,0.38,-1.13,0.48,1.29
9.289,-0.30,-0.08,-0.28,0.42
9.299,-0.24,-0.33,-0.20,0.45
9.309,0.28,-0.11,0.59,0.66
9.319,1.41,1.44,0.24,2.03
9.329,1.05,0.60,-0.62,1.36
9.339,0.14,1.08,-0.30,1.13
9.349,-0.38,-0.02,-0.10,0.40
9.359,-1.95,-1.45,0.47,2.48
9.369,-1.99,0.38,-0.27,2.04
9.379,-0.78,-0.14,-0.33,0.86
9.389,1.13,0.40,-0.28,1.23
9.399,0.57,-0.20,-0.22,0.64
9.409,0.30,-0.41,0.26,0.57
9.420,-0.49,-0.03,0.34,0.60
9.430,-0.80,-0.58,-0.61,1.17
9.440,0.14,-0.88,0.60,1.08
9.450,1.80,1.31,0.21,2.24
9.460,1.49,0.97,-0.28,1.80
9.470,0.37,1.20,-0.14,1.26
9.480,-0.87,0.06,0.01,0.87
9.490,-2.15,-0.38,-0.72,2.30
9.500,-1.48,-0.06,-0.27,1.50
9.510,-0.83,-0.43,-0.50,1.06
9.521,0.03,-0.34,0.89,0.96
9.531,1.48,0.60,-0.55,1.69
9.541,0.16,-0.76,0.38,0.87
9.551,-0.52,-0.58,-0.24,0.81
9.561,-0.29,-1.04,-0.47,1.18
9.571,0.23,0.24,1.15,1.20
9.581,1.44,0.86,0.43,1.73
9.591,1.16,0.71,-0.75,1.55
9.601,0.46,1.70,-0.56,1.84
9.611,-0.45,0.79,-0.46,1.02
9.621,-1.59,-1.26,1.16,2.33
9.632,-1.47,-0.33,-0.80,1.71
9.642,-0.58,-0.68,-0.19,0.91
9.652,-0.16,-0.35,-0.39,0.54
9.662,-1.13,-1.05,-0.48,1.62
9.672,1.17,0.68,0.64,1.49
9.682,0.77,1.04,-0.18,1.30
9.692,-0.37,-1.49,0.26,1.56
9.702,0.67,0.42,-0.04,0.79
9.712,1.79,1.02,0.42,2.10
9.722,0.27,-0.44,-0.53,0.74
9.732,-0.52,0.70,0.32,0.93
9.742,-0.56,0.63,-0.33,0.90
9.753,-1.89,-1.00,0.01,2.14
9.763,-1.05,1.29,-1.14,2.02
9.773,-0.27,-1.49,0.43,1.58
9.783,0.65,0.91,-0.24,1.15
9.793,0.12,-0.76,0.44,0.89
9.803,0.11,-0.78,-0.54,0.95
9.813,-0.28,0.44,0.60,0.79
9.823,-0.15,0.04,-0.69,0.71
9.833,0.24,-0.02,0.42,0.48
9.843,1.94,1.04,0.81,2.35
9.853,1.20,0.07,-1.05,1.59
9.863,0.21,0.62,0.32,0.73
9.873,-1.33,-0.07,0.25,1.36
9.884,-2.87,-0.51,-0.61,2.97
9.894,-1.42,1.17,-0.69,1.97
9.904,0.23,-0.54,-0.42,0.72
9.914,0.71,-0.14,0.46,0.86
9.924,0.92,0.09,-0.03,0.93
9.934,0.15,-1.17,0.41,1.24
9.944,-0.81,0.37,-0.63,1.09
9.954,-0.63,-2.14,1.00,2.45
9.964,0.81,1.45,-1.29,2.10
9.974,1.63,0.14,2.28,2.81
9.984,1.28,1.83,-1.76,2.85
9.995,0.10,0.12,-0.59,0.61
10.005,-1.11,0.58,0.91,1.55
10.015,-1.89,0.14,-1.08,2.18
10.025,-2.86,-2.26,0.88,3.75
10.035,1.04,1.60,-1.62,2.50
10.045,0.67,-1.22,1.46,2.02
10.055,0.93,1.07,-1.07,1.78
10.065,-0.07,-1.21,0.97,1.55
10.075,-0.93,-0.06,-0.19,0.95
10.085,-0.02,-0.67,-0.84,1.07
10.096,0.42,-1.39,1.44,2.05
10.106,1.32,2.07,-0.99,2.65
10.116,1.29,0.23,0.79,1.53
10.126,0.27,1.64,-0.93,1.91
10.136,-0.86,0.70,0.21,1.13
10.146,-2.20,0.69,-0.28,2.33
10.156,-1.55,-0.81,-1.05,2.04
10.166,-0.43,-0.47,0.23,0.67
10.176,1.01,-0.69,-0.47,1.31
10.186,-0.16,-1.14,1.53,1.92
10.196,1.18,0.57,-0.87,1.57
10.206,-0.86,-2.05,1.00,2.44
10.216,0.22,0.72,-2.40,2.52
10.226,-0.69,-0.87,2.26,2.52
10.236,1.35,1.66,-0.66,2.23
10.247,0.59,-0.24,0.47,0.79
10.257,2.18,2.40,-1.24,3.47
10.267,-1.28,-0.32,1.09,1.71
10.277,-2.31,0.86,-0.84,2.60
10.287,-1.95,-1.35,-0.81,2.51
10.297,-0.65,-0.13,-0.08,0.67
10.307,0.03,-0.39,0.85,0.94
10.317,1.26,-1.16,-0.36,1.75
10.327,0.43,0.48,0.71,0.95
10.337,0.16,-0.63,-1.13,1.30
10.348,-0.31,-0.55,-0.27,0.68
10.358,0.70,0.91,1.19,1.65
10.368,0.87,-0.10,0.19,0.90
10.378,0.65,1.19,-0.55,1.46
10.388,0.33,0.67,-0.09,0.75
10.398,-0.69,0.75,-0.53,1.15
10.408,-3.07,-0.07,0.46,3.11
10.418,-0.57,-0.19,-1.29,1.42
10.428,0.69,-0.44,0.33,0.89
10.438,0.42,-0.48,0.17,0.66
10.449,-0.92,-1.28,0.19,1.58
10.458,0.57,-0.22,0.05,0.62
10.469,0.43,0.04,-0.47,0.64
10.479,-0.13,-0.31,-0.01,0.34
10.489,0.20,1.04,0.66,1.25
10.499,1.77,1.31,0.08,2.20
10.509,0.62,0.65,-1.46,1.72
10.519,-0.20,0.23,0.98,1.03
10.529,-0.87,0.41,-0.46,1.07
10.539,-1.77,-1.17,0.63,2.21
10.549,-1.54,0.72,-1.15,2.06
10.559,-0.29,-1.21,-0.63,1.39
10.569,-0.38,-0.23,1.40,1.47
10.579,1.23,0.32,-1.82,2.22
10.590,0.21,-1.78,1.82,2.55
10.600,1.52,2.34,-0.97,2.96
10.610,-0.80,-1.69,1.17,2.21
10.620,0.56,1.63,-0.55,1.81
10.630,0.59,0.42,-0.34,0.80
10.640,0.65,0.32,0.22,0.76
10.650,0.05,0.55,-0.19,0.59
10.660,-1.88,-2.05,-0.16,2.79
10.670,-2.03,1.02,0.33,2.30
10.680,0.15,0.43,-1.25,1.33
10.690,-0.55,-0.75,0.04,0.93
10.700,1.10,1.46,-0.53,1.90
10.711,0.36,-1.76,1.38,2.26
10.721,0.75,1.07,-0.48,1.39
10.731,-1.29,-1.85,0.04,2.26
10.741,-0.06,-0.34,-0.45,0.57
10.751,1.19,0.94,1.16,1.91
10.761,1.63,0.95,-0.53,1.96
10.771,0.71,0.20,0.01,0.73
10.781,-0.57,0.54,-0.08,0.79
10.791,-1.80,0.52,-0.62,1.97
10.801,-2.23,-0.61,0.08,2.32
10.811,-1.09,0.36,-0.85,1.43
10.822,0.52,-0.04,-0.05,0.52
10.832,1.11,-0.57,1.00,1.60
10.842,0.77,0.39,-0.02,0.86
10.852,-0.30,-1.54,-0.54,1.66
10.862,-0.17,-0.37,-0.40,0.57
10.872,-0.63,-0.23,0.61,0.90
10.882,0.71,0.03,0.85,1.11
10.892,1.44,1.41,-0.69,2.13
10.902,0.98,0.77,-0.77,1.46
10.912,0.37,0.77,0.42,0.95
10.922,-2.14,-0.08,0.11,2.14
10.933,-2.25,0.04,-0.23,2.26
10.943,-0.40,-0.83,-1.21,1.52
10.953,-0.49,0.10,0.20,0.54
10.963,0.24,-0.74,-0.09,0.78
10.973,1.27,-0.76,1.04,1.81
10.983,0.59,0.11,-0.20,0.63
10.993,-1.02,-1.07,-1.12,1.85
11.003,0.13,0.91,1.12,1.45
11.013,1.45,1.54,-0.25,2.13
11.023,0.39,-0.44,0.25,0.64
11.033,1.05,2.68,-1.35,3.18
11.043,-1.10,-1.23,1.68,2.35
11.054,-1.12,1.03,-1.93,2.46
11.064,-1.96,-1.15,1.09,2.52
11.074,-0.12,-0.22,-1.85,1.87
11.084,-0.29,-1.14,1.36,1.79
11.094,0.49,-0.12,-0.08,0.51
11.104,-0.06,-1.01,0.15,1.02
11.114,-0.15,0.38,0.03,0.41
11.124,0.27,0.13,-0.96,1.01
11.134,0.47,0.11,0.92,1.04
11.144,1.91,1.38,0.02,2.36
11.154,0.87,0.28,-0.38,0.99
11.164,-0.16,0.71,0.80,1.08
11.175,-0.81,0.31,-0.02,0.87
11.185,-1.97,-0.41,-1.60,2.57
11.195,-2.72,-0.96,0.25,2.89
11.205,0.57,0.88,-1.68,1.98
11.215,0.28,-1.21,1.86,2.23
11.225,1.08,0.79,0.20,1.35
11.235,0.01,-1.27,-0.23,1.29
11.245,-0.44,-0.40,-0.21,0.63
11.255,-0.52,0.23,-0.05,0.57
11.265,0.65,0.13,-0.11,0.67
11.275,2.33,1.13,1.19,2.85
11.285,0.66,0.84,-1.35,1.72
11.296,-0.80,0.15,0.26,0.85
11.306,-0.66,0.37,0.07,0.76
11.316,-2.38,-1.18,-0.58,2.72
11.326,-1.06,0.38,0.56,1.26
11.336,0.31,-0.16,-1.55,1.59
11.346,0.27,-0.53,0.78,0.98
11.356,0.64,0.92,0.28,1.16
11.366,-0.10,-0.87,-0.34,0.94
11.376,-0.72,-0.09,-0.01,0.73
11.386,0.18,-0.31,-0.20,0.41
11.396,1.04,0.15,0.77,1.30
11.407,1.75,1.72,-0.14,2.46
11.417,0.31,-0.53,-0.05,0.62
11.427,-0.20,1.45,-0.77,1.66
11.437,-1.50,-1.15,0.64,1.99
11.447,-2.10,-0.15,-0.92,2.29
11.457,-1.53,-0.46,0.45,1.66
11.467,0.50,0.47,-0.91,1.14
11.477,0.41,0.29,0.17,0.53
11.487,0.79,-0.91,0.77,1.43
11.497,0.26,0.58,-1.16,1.32
11.507,-0.27,-1.61,1.22,2.04
11.517,-0.65,0.02,-0.63,0.91
11.527,0.55,0.10,0.27,0.62
11.538,1.33,1.34,0.68,2.01
11.548,1.75,2.17,-1.41,3.12
11.558,-0.22,-0.72,0.41,0.85
11.568,-0.67,0.47,0.31,0.87
11.578,-2.17,-1.67,-0.78,2.85
11.588,-1.76,-0.27,0.40,1.82
11.598,-0.70,0.21,-0.76,1.05
11.608,-0.07,-0.89,-0.25,0.93
11.618,1.16,1.28,0.51,1.80
11.628,0.84,-0.35,-0.01,0.91
11.638,-0.07,-0.05,-1.15,1.16
11.649,0.11,-0.42,1.47,1.54
11.659,0.67,0.08,-0.52,0.85
11.669,0.43,-0.23,0.68,0.83
11.679,0.66,1.09,-0.16,1.29
11.689,0.05,1.02,-0.34,1.07
11.699,-1.24,-1.01,-0.36,1.64
11.709,-1.07,-0.08,-0.35,1.13
11.719,-1.21,0.14,0.28,1.25
11.729,-0.87,-0.54,-0.89,1.36
11.739,-0.01,-0.35,0.19,0.40
11.749,0.98,0.79,0.34,1.31
11.759,0.79,0.15,-0.45,0.92
11.769,-0.27,-0.65,0.23,0.74
11.780,-0.09,0.07,0.14,0.19
11.790,1.56,-0.27,1.02,1.88
11.800,1.01,1.01,-1.49,2.07
11.810,-0.45,-0.35,0.89,1.05
11.820,0.24,1.30,-0.88,1.59
11.830,-1.53,-0.20,0.97,1.82
11.840,-2.16,0.52,-1.09,2.47
11.850,-0.76,-0.56,-0.90,1.30
11.860,0.08,0.77,0.25,0.81
11.870,0.58,-1.50,0.48,1.68
11.880,0.38,-0.48,0.27,0.67
11.891,0.31,0.26,0.04,0.40
11.901,0.17,-0.72,-0.73,1.04
11.911,-0.56,0.52,0.11,0.77
11.921,0.92,-0.04,0.92,1.30
11.931,1.62,1.25,-0.50,2.11
11.941,0.14,0.71,0.09,0.73
11.951,-0.65,-0.06,-0.45,0.79
11.961,-1.45,-0.61,-0.24,1.59
11.971,-1.83,0.65,0.30,1.96
11.981,-0.37,-0.26,-0.85,0.96
11.991,-0.22,-0.10,0.17,0.29
12.002,1.33,0.93,-0.47,1.69
12.012,0.64,-0.96,1.30,1.74
12.022,-0.85,-0.30,-1.06,1.39
12.032,-0.59,-1.48,0.23,1.61
12.042,0.28,0.32,-0.14,0.44
12.052,1.14,0.47,1.05,1.62
12.062,1.64,1.16,-0.53,2.07
12.072,0.66,0.87,-0.50,1.20
12.082,-0.50,0.56,-0.08,0.75
12.092,-2.36,-0.35,0.15,2.39
12.102,-2.26,0.02,-0.40,2.30
12.112,-0.58,-0.71,-0.74,1.18
12.123,0.45,0.21,0.12,0.51
12.133,1.51,-0.67,0.48,1.72
12.143,0.38,-0.38,0.02,0.54
12.153,-0.55,-0.28,0.17,0.64
12.163,-0.54,-0.75,-1.14,1.47
12.173,-0.61,-0.44,0.72,1.04
12.183,0.68,0.26,0.29,0.78
12.193,2.07,1.42,0.43,2.55
12.203,1.05,1.23,-0.86,1.84
12.213,-0.48,-0.15,-0.07,0.51
12.223,-1.46,1.22,-0.08,1.90
12.233,-2.71,-1.33,-0.17,3.03
12.243,-0.78,0.33,-0.57,1.02
12.254,-0.02,-1.06,0.26,1.09
12.264,0.89,-0.08,-0.27,0.94
12.274,1.23,-0.04,0.23,1.25
12.284,-0.46,-1.52,0.39,1.63
12.294,0.06,0.74,-0.99,1.23
12.304,-0.69,-1.83,1.18,2.29
12.314,0.94,1.93,-0.31,2.16
12.324,0.99,0.83,0.29,1.32
12.334,1.03,1.22,-1.57,2.24
12.344,-0.10,0.43,0.87,0.98
12.354,-1.39,0.90,0.12,1.66
12.364,-2.08,-0.82,-0.22,2.25
12.375,-1.07,-0.99,-1.37,2.00
12.385,0.15,-0.72,0.75,1.05
12.395,0.44,0.17,0.25,0.54
12.405,0.70,-0.84,-0.00,1.10
12.415,-0.47,-0.71,0.29,0.90
12.425,0.45,0.57,-1.15,1.36
12.435,0.22,-0.98,0.59,1.17
12.445,1.19,1.66,1.12,2.32
12.455,0.86,0.50,-0.89,1.33
12.465,0.23,-0.34,-0.47,0.63
12.476,-0.36,1.86,-0.49,1.96
12.486,-2.38,-0.39,1.53,2.85
12.496,-1.05,1.38,-2.48,3.03
12.506,-1.13,-1.52,0.97,2.12
12.516,1.07,0.69,-0.90,1.56
12.526,0.54,-1.75,1.73,2.52
12.536,-0.16,0.04,-0.25,0.30
12.546,0.34,-0.65,-1.29,1.48
12.556,-0.87,-1.16,0.24,1.47
12.566,1.62,1.87,0.31,2.50
12.576,0.23,-0.92,1.34,1.64
12.586,1.16,2.24,-1.20,2.80
12.596,-0.28,-0.02,0.53,0.60
12.607,-1.13,0.49,-1.48,1.92
12.617,-0.19,-0.13,0.12,0.25
12.627,-1.85,-0.73,0.71,2.11
12.637,-0.54,0.16,-0.43,0.71
12.647,-0.04,-0.54,0.22,0.58
12.657,0.85,-0.25,-0.79,1.18
12.667,-0.19,-0.33,-0.71,0.80
12.677,0.36,-0.37,1.44,1.53
12.687,0.39,1.67,-0.53,1.79
12.697,0.70,-0.57,1.10,1.42
12.707,0.87,1.40,-1.23,2.06
12.718,0.65,-0.17,-0.17,0.69
12.728,-0.24,0.35,0.16,0.46
12.738,-0.88,-0.56,-0.01,1.04
12.748,-3.01,-1.37,1.11,3.49
12.758,-0.18,1.63,-2.32,2.84
12.768,-0.38,-1.71,0.20,1.76
12.778,0.89,1.54,0.04,1.77
12.788,-0.20,-1.15,1.57,1.95
12.798,1.07,0.79,-1.48,1.99
12.809,-0.50,-1.31,0.20,1.42
12.818,-0.87,-0.49,-0.28,1.04
12.829,0.59,0.00,1.12,1.27
12.839,2.05,1.35,-0.50,2.51
12.849,0.73,0.46,-0.45,0.98
12.859,0.38,1.35,-0.10,1.40
12.869,-1.22,0.18,0.37,1.28
12.879,-2.45,-0.71,0.19,2.56
12.889,-1.45,0.28,-1.73,2.27
12.899,-0.01,-1.40,0.93,1.68
12.909,0.97,1.12,-1.14,1.87
12.919,-0.44,-2.26,0.91,2.47
12.929,0.78,0.01,-0.19,0.81
12.939,0.61,0.21,0.60,0.88
12.949,-0.94,-1.14,0.23,1.49
12.960,1.04,2.37,-0.32,2.61
12.970,1.13,0.32,-0.24,1.20
12.980,1.17,1.72,-1.25,2.43
12.990,-0.81,-0.33,1.80,2.00
13.000,-1.15,0.05,-0.88,1.45
13.010,-1.99,-0.03,0.24,2.00
13.020,-1.15,-1.14,-1.14,1.98
13.030,-0.01,-0.35,-0.57,0.67
13.040,0.67,-0.03,1.28,1.44
13.050,0.34,-0.79,0.15,0.88
13.060,0.18,0.15,-0.58,0.63
13.071,-0.26,-0.21,-0.21,0.39
13.080,0.48,0.37,0.06,0.61
13.091,1.60,1.35,0.71,2.20
13.101,0.80,0.32,-0.00,0.87
13.111,0.03,0.79,-0.75,1.09
13.121,-0.74,-0.33,0.26,0.85
13.131,-1.71,-0.51,-0.37,1.82
13.141,-1.85,-0.11,0.07,1.86
13.151,-0.35,-0.17,-0.74,0.83
13.161,0.43,-0.14,-0.34,0.56
13.171,0.24,-0.51,1.20,1.33
13.182,0.57,0.51,-0.73,1.06
13.192,-0.32,-0.21,-0.04,0.39
13.202,-0.53,-0.43,-0.25,0.72
13.212,0.62,0.13,0.30,0.70
13.222,1.57,0.01,0.84,1.78
13.232,0.97,0.78,-0.75,1.46
13.242,-0.16,-0.09,0.25,0.31
13.252,-0.18,1.12,-0.48,1.23
13.262,-1.58,-0.41,0.49,1.71
13.272,-2.07,0.52,-1.26,2.48
13.282,-0.83,-0.52,-0.15,0.99
13.292,0.77,0.17,0.13,0.80
13.302,0.57,-0.38,0.07,0.69
13.313,0.09,-0.97,0.26,1.00
13.323,0.21,-0.10,-0.31,0.39
13.333,0.17,-0.03,0.25,0.31
13.343,-0.26,0.00,-0.33,0.42
13.353,1.01,0.41,0.74,1.31
13.363,1.77,1.60,-1.07,2.61
13.373,-0.17,-0.56,0.56,0.81
13.383,-0.42,1.03,-0.11,1.12
13.393,-2.65,-1.48,0.51,3.08
13.403,-1.61,-0.17,-1.10,1.96
13.413,-0.26,0.43,-0.40,0.64
13.423,0.85,-0.50,-0.18,1.00
13.434,0.42,-0.14,0.36,0.57
13.444,0.40,0.14,0.42,0.60
13.454,-0.69,-0.44,-0.36,0.89
13.464,-0.50,-0.28,-0.33,0.67
13.474,0.89,0.23,0.67,1.13
13.484,2.15,1.50,-0.03,2.63
13.494,0.63,-0.06,-0.38,0.74
13.504,0.13,1.68,-0.75,1.84
13.514,-1.18,-1.35,1.83,2.56
13.524,-1.91,0.37,-2.00,2.79
13.534,-1.85,-1.10,0.65,2.25
13.545,-0.43,0.11,-0.33,0.55
13.555,0.79,0.40,-0.51,1.03
13.565,0.62,-0.57,0.52,0.99
13.575,0.39,0.02,-0.21,0.44
13.585,0.01,-0.15,0.25,0.29
13.595,-0.18,-0.48,-0.53,0.74
13.605,-0.01,0.08,0.91,0.92
13.615,1.52,1.18,-0.25,1.94
13.625,0.87,0.77,-0.40,1.23
13.635,0.12,0.67,0.23,0.72
13.645,-0.60,-0.93,0.04,1.10
13.656,-1.18,-0.19,-0.72,1.40
13.666,-2.13,-0.89,0.55,2.37
13.676,-1.39,0.04,-0.93,1.67
13.686,0.22,0.38,-0.15,0.46
13.696,0.89,0.46,0.55,1.14
13.706,1.27,0.40,-1.39,1.92
13.716,-0.66,-1.33,2.04,2.52
13.726,0.80,0.88,-1.60,1.99
13.736,0.55,-1.39,2.01,2.50
13.746,0.49,1.61,-1.37,2.17
13.756,0.25,-0.41,0.24,0.54
13.766,0.48,2.65,-0.46,2.73
13.776,-1.42,-1.54,0.40,2.13
13.787,-1.63,-0.59,-0.55,1.82
13.797,-0.51,0.75,-0.36,0.98
13.807,-0.79,-1.20,-0.34,1.48
13.817,-0.20,-0.29,0.43,0.55
13.827,0.45,0.46,0.28,0.70
13.837,0.79,-0.41,-0.15,0.90
13.847,0.11,0.71,-0.57,0.92
13.857,0.02,-1.06,-0.04,1.06
13.867,0.55,0.40,0.97,1.19
13.877,1.31,1.40,-0.68,2.03
13.887,-0.14,-0.85,0.31,0.92
13.898,0.25,1.47,-0.48,1.56
13.908,-0.70,-0.54,0.60,1.07
13.918,-2.25,0.11,-0.71,2.36
13.928,-1.22,-0.19,-0.54,1.34
13.938,0.56,0.54,-0.15,0.79
13.948,0.25,-0.03,0.13,0.29
13.958,0.39,-0.76,0.13,0.86
13.968,0.68,0.34,0.06,0.76
13.978,-0.68,-1.35,-0.13,1.52
13.988,-0.38,0.15,-0.01,0.41
13.998,1.20,-0.25,0.64,1.38
14.008,1.04,1.28,-0.62,1.76
14.018,0.98,0.74,-0.15,1.24
14.029,-0.23,0.76,0.23,0.83
14.039,-1.62,-0.06,-0.43,1.68
14.049,-2.17,-0.44,0.62,2.30
14.059,0.33,0.99,-1.71,2.01
14.069,-0.56,-1.91,0.58,2.08
14.079,0.40,0.53,-0.53,0.85
14.089,0.42,-1.13,1.32,1.79
14.099,0.08,0.13,-0.81,0.82
14.109,-1.11,-0.85,-0.28,1.43
14.119,-0.35,-0.40,-0.54,0.76
14.130,1.38,0.93,0.98,1.93
14.140,1.31,0.75,0.90,1.75
14.150,1.00,0.75,-1.19,1.72
14.160,0.28,0.47,-0.53,0.77
14.170,-1.40,-0.07,0.50,1.49
14.180,-2.63,0.28,-0.04,2.64
14.190,-1.66,-0.83,-0.74,2.00
14.200,0.34,0.40,-0.17,0.55
14.210,0.91,0.01,-0.23,0.94
14.220,1.36,-1.14,0.65,1.89
14.230,0.12,0.27,0.38,0.48
14.240,-0.78,-1.41,-0.92,1.85
14.251,-1.01,-0.44,0.23,1.12
14.261,0.04,0.52,0.07,0.53
14.271,1.74,0.77,0.56,1.98
14.281,1.60,1.89,-0.66,2.56
14.291,0.39,-0.11,-0.21,0.46
14.301,-0.42,1.16,0.16,1.25
14.311,-2.86,-0.32,-0.47,2.92
14.321,-1.88,-1.69,-0.06,2.53
14.331,-0.49,0.88,-1.19,1.56
14.341,1.04,-0.92,1.18,1.82
14.351,0.92,-0.43,0.01,1.02
14.361,-0.09,-0.80,0.16,0.82
14.372,0.90,-0.26,-0.49,1.06
14.382,-1.05,-0.12,-0.52,1.17
14.392,0.11,0.05,1.82,1.83
14.402,1.98,2.00,-1.08,3.02
14.412,0.04,-0.05,-0.61,0.61
14.422,0.59,1.86,0.03,1.95
14.432,-1.81,-0.07,1.10,2.12
14.442,-2.04,0.34,-1.52,2.57
14.452,-0.74,-1.84,-0.19,1.99
14.462,-0.16,0.51,-0.30,0.61
14.472,0.27,-0.98,0.23,1.04
14.482,1.27,-0.55,1.53,2.06
14.493,0.10,0.72,-1.78,1.92
14.503,-1.65,-2.23,0.70,2.86
14.513,1.41,1.99,-0.79,2.57
14.523,0.45,-0.08,1.69,1.75
14.533,1.42,1.28,-1.21,2.26
14.543,0.36,0.27,-0.38,0.59
14.553,-0.18,0.63,0.55,0.86
14.563,-1.68,0.43,0.01,1.74
14.573,-2.49,-0.66,-0.46,2.62
14.583,-0.03,0.20,-1.19,1.21
14.593,0.54,-0.61,0.02,0.82
14.603,-0.08,-0.52,0.84,0.99
14.613,0.56,-0.33,0.20,0.68
14.624,-0.03,-0.56,-0.19,0.60
14.634,0.16,0.29,-0.24,0.41
14.644,0.06,0.07,-0.12,0.15
14.654,0.44,0.66,0.12,0.80
14.664,1.12,1.05,0.95,1.81
14.674,0.86,1.22,-1.38,2.04
14.684,-1.34,-1.40,0.52,2.01
14.694,-0.42,0.59,-0.68,0.99
14.704,-1.95,-0.68,0.41,2.11
14.715,-1.24,-0.19,-0.35,1.31
14.725,0.27,0.17,-0.90,0.95
14.735,0.46,-0.16,0.44,0.66
14.745,1.03,-0.13,0.42,1.12
14.755,-0.02,-0.21,0.14,0.25
14.765,-1.01,-1.11,-0.45,1.56
14.775,0.23,-0.35,-0.26,0.49
14.785,1.61,1.41,1.24,2.47
14.795,0.98,-0.09,-1.08,1.46
14.805,0.77,1.43,-0.39,1.67
14.815,-0.27,0.76,0.85,1.17
14.825,-2.83,-1.04,-0.04,3.01
14.835,-1.29,0.61,-0.97,1.73
14.846,-0.81,-0.82,-0.52,1.27
14.856,0.30,-0.35,0.20,0.50
14.866,0.66,0.23,0.01,0.70
14.876,0.72,-0.78,0.16,1.08
14.886,0.04,-0.40,0.44,0.59
14.896,-0.79,0.13,-1.16,1.42
14.906,0.03,-0.77,1.29,1.50
14.916,2.10,1.88,0.34,2.84
14.926,0.79,0.86,-1.60,1.98
14.936,-0.15,-0.64,0.95,1.16
14.946,0.32,1.58,-0.63,1.73
14.957,-2.66,-0.97,0.97,2.99
14.967,-2.29,-0.27,-2.22,3.20
14.977,-0.00,0.15,0.49,0.52
14.987,0.62,0.11,0.15,0.65
14.997,0.50,-1.18,0.08,1.28
15.007,0.90,0.18,0.81,1.22
15.017,-0.02,-0.64,-1.00,1.19
15.027,-0.78,-0.55,-0.38,1.03
15.037,0.16,1.45,0.85,1.69
15.047,1.93,0.21,0.55,2.02
15.057,0.79,1.45,-0.93,1.89
15.067,-0.29,0.23,0.58,0.69
15.078,-0.65,0.03,-0.69,0.94
15.087,-2.00,-0.15,-0.41,2.05
15.098,-1.97,-1.05,0.41,2.27
15.108,0.18,0.30,-1.51,1.55
15.118,-0.74,-1.44,1.80,2.41
15.128,1.65,1.34,-1.66,2.70
15.138,-0.07,-1.73,1.82,2.52
15.148,0.77,1.69,-1.42,2.34
15.158,-0.13,-0.86,0.32,0.93
15.168,0.29,0.49,0.85,1.02
15.178,1.08,1.31,-1.05,2.00
15.188,0.16,-0.36,0.47,0.61
15.198,0.56,1.84,-0.68,2.04
15.209,-1.21,-1.96,0.92,2.48
15.219,-1.43,0.70,-0.87,1.82
15.229,-1.65,-0.72,0.02,1.80
15.239,-0.57,-0.36,-0.76,1.02
15.249,0.53,0.24,0.52,0.78
15.259,0.77,-0.29,-0.14,0.83
15.269,0.61,0.24,-0.27,0.70
15.279,0.15,-0.38,0.45,0.60
15.289,-0.68,0.17,-0.10,0.71
15.299,0.31,0.25,-0.46,0.61
15.309,1.16,-0.48,0.75,1.47
15.320,1.12,1.59,-0.59,2.03
15.330,-0.53,-0.84,0.93,1.36
15.340,-0.69,0.44,-0.68,1.06
15.350,-2.12,0.21,-0.85,2.29
15.360,-1.82,-0.33,-0.26,1.87
15.370,0.52,0.26,-0.64,0.87
15.380,0.40,-0.56,1.34,1.50
15.390,1.01,0.18,-0.62,1.20
15.400,-0.53,-1.62,0.40,1.75
15.410,0.26,0.60,-0.63,0.91
15.420,-0.27,-0.33,0.27,0.50
15.430,1.44,0.28,0.95,1.75
15.441,1.81,1.27,-0.61,2.30
15.451,0.02,0.38,-0.79,0.87
15.461,-1.26,0.06,0.69,1.43
15.471,-1.41,0.26,-0.70,1.59
15.481,-1.83,-1.04,0.63,2.20
15.491,-0.26,1.07,-1.46,1.83
15.501,0.36,-1.02,0.04,1.08
15.511,0.04,-0.17,0.96,0.98
15.521,0.75,0.69,-0.83,1.31
15.531,-0.57,-2.04,1.12,2.40
15.542,-0.37,1.61,-1.78,2.43
15.551,0.66,-1.09,1.99,2.36
15.562,1.97,2.46,-1.02,3.31
15.572,0.27,-0.31,0.35,0.54
15.582,0.50,0.53,-0.63,0.97
15.592,-0.51,0.05,0.49,0.71
15.602,-1.99,-1.34,-0.11,2.40
15.612,-1.79,-0.50,-0.99,2.11
15.622,-0.58,0.83,0.30,1.06
15.632,-0.02,0.77,-0.33,0.84
15.642,0.95,0.08,-0.02,0.95
15.652,0.71,0.22,0.33,0.82
15.662,0.19,-0.56,-0.32,0.68
15.672,-0.89,-1.07,-0.33,1.43
15.682,-0.39,-0.64,1.21,1.42
15.693,2.47,1.31,-0.28,2.81
15.703,0.97,0.55,0.02,1.11
15.713,0.10,1.62,-1.33,2.10
15.723,-1.40,-1.17,1.69,2.49
15.733,-1.24,1.67,-1.97,2.86
15.743,-1.74,-2.30,1.00,3.05
15.753,-0.92,0.37,-1.11,1.49
15.763,0.81,-0.10,0.92,1.22
15.773,0.56,-0.01,-0.36,0.67
15.783,0.13,0.21,-0.21,0.33
15.794,0.44,-0.19,0.19,0.51
15.804,-0.58,-0.43,-0.60,0.94
15.814,0.36,-0.12,0.52,0.65
15.824,1.05,0.55,0.46,1.27
15.834,0.83,0.91,-0.49,1.33
15.844,0.83,0.85,0.20,1.21
15.854,-0.43,-0.04,-0.12,0.45
15.864,-2.22,-1.19,-0.74,2.63
15.874,-0.60,0.53,0.67,1.04
15.884,-1.37,-0.58,-1.14,1.87
15.894,-0.89,-0.75,0.81,1.42
15.905,2.19,1.71,-0.11,2.77
15.915,0.06,-1.38,-0.33,1.42
15.925,-0.41,1.14,-0.89,1.51
15.935,0.52,-1.45,1.11,1.90
15.945,-0.01,0.55,-0.26,0.61
15.955,0.45,-0.68,1.34,1.57
15.965,1.51,1.26,-1.65,2.57
15.975,-0.38,0.04,0.33,0.51
15.985,-0.57,0.68,-0.35,0.95
15.995,-1.16,0.24,0.31,1.23
16.005,-1.72,-0.17,-0.02,1.72
16.015,-0.22,0.08,-1.60,1.61
16.026,-0.11,-0.49,0.77,0.92
16.036,0.86,-0.07,-0.31,0.92
16.046,0.06,-1.32,0.87,1.58
16.056,-0.37,0.35,-0.38,0.63
16.066,0.22,-0.11,-0.20,0.32
16.076,0.11,0.31,0.04,0.33
16.086,1.13,0.53,0.45,1.33
16.096,1.56,0.64,-0.66,1.81
16.106,-0.00,0.24,0.51,0.57
16.116,-1.81,-0.15,0.17,1.82
16.126,-1.73,-0.14,-1.01,2.01
16.136,-1.28,0.98,-0.46,1.68
16.146,0.03,-0.32,-0.13,0.35
16.157,0.66,-0.22,-0.09,0.70
16.167,0.93,-0.00,1.22,1.53
16.177,-0.18,-0.24,-1.27,1.30
16.187,-0.63,-1.49,0.23,1.63
16.197,-0.71,-0.26,0.29,0.81
16.207,1.17,0.46,0.22,1.28
16.217,1.27,0.48,0.65,1.51
16.227,1.25,1.48,-1.41,2.40
16.237,0.22,0.55,0.19,0.62
16.247,-0.45,0.90,0.19,1.02
16.257,-3.23,-0.95,0.27,3.38
16.268,-1.92,-0.48,-1.41,2.43
16.278,0.42,0.20,0.35,0.58
16.288,0.65,-0.50,-0.16,0.84
16.298,0.85,-0.65,0.42,1.15
16.308,0.67,0.09,-0.08,0.68
16.318,-0.68,-0.76,-0.58,1.18
16.328,-0.67,-0.19,0.46,0.83
16.338,0.30,-0.49,0.38,0.69
16.348,1.64,1.65,-0.35,2.35
16.358,0.79,0.92,0.73,1.41
16.368,0.53,1.00,-1.93,2.24
16.378,-1.13,-0.00,1.84,2.15
16.388,-2.57,0.99,-1.37,3.08
16.399,-1.32,-2.18,-0.79,2.66
16.409,-0.07,0.90,0.32,0.96
16.419,0.57,-0.74,0.19,0.95
16.429,1.07,-0.37,1.02,1.52
16.439,0.41,0.25,-0.73,0.87
16.449,-0.68,-1.74,-0.57,1.95
16.459,-0.21,0.59,-0.56,0.84
16.469,-0.10,-0.61,2.21,2.30
16.479,1.74,2.08,-0.85,2.84
16.489,1.01,0.07,-0.18,1.03
16.499,0.81,1.68,-0.93,2.08
16.510,-1.50,0.00,0.79,1.70
16.519,-3.08,0.01,-0.24,3.09
16.530,-0.89,-0.66,-1.20,1.64
16.540,0.33,-0.57,0.91,1.12
16.550,0.69,-0.48,-0.77,1.14
16.560,0.32,-1.14,0.51,1.29
16.570,0.55,0.67,0.65,1.09
16.580,-0.67,-0.59,-1.01,1.34
16.590,-0.36,-0.34,0.05,0.50
16.600,1.56,1.37,0.71,2.20
16.610,0.76,0.37,-0.43,0.95
16.620,0.40,0.36,0.02,0.54
16.631,-0.27,0.94,-0.48,1.09
16.641,-1.43,0.19,0.03,1.45
16.651,-1.92,-0.23,-0.07,1.94
16.661,-0.42,0.02,-0.88,0.97
16.671,0.61,0.02,-0.06,0.61
16.681,0.21,-1.43,1.11,1.82
16.691,-0.08,0.16,-0.96,0.98
16.701,-1.03,-1.48,0.70,1.94
16.711,0.95,0.44,-0.73,1.28
16.721,0.21,-0.44,0.50,0.70
16.732,1.16,1.13,0.79,1.80
16.742,0.92,0.87,-0.75,1.48
16.752,0.28,0.58,-0.46,0.79
16.762,-0.28,0.54,0.30,0.68
16.772,-1.50,-1.05,0.01,1.83
16.782,-1.41,0.43,0.04,1.47
16.792,-1.18,-0.36,-0.88,1.51
16.802,0.30,-0.81,-0.76,1.15
16.812,0.40,0.69,1.11,1.37
16.822,0.25,-0.59,-0.12,0.65
16.832,-0.04,-0.43,-0.25,0.50
16.842,0.26,0.60,-0.03,0.65
16.853,0.16,-0.58,-0.16,0.62
16.862,1.42,1.10,0.99,2.05
16.873,0.85,0.45,-0.53,1.10
16.883,0.24,0.49,-0.70,0.89
16.893,-0.50,-0.11,0.64,0.82
16.903,-2.02,-0.62,-0.60,2.20
16.913,-1.97,-0.37,-0.07,2.00
16.923,-0.02,0.74,-0.33,0.81
16.933,0.12,-0.09,-0.36,0.39
16.943,0.72,0.10,0.06,0.73
16.953,0.92,-0.06,0.08,0.93
16.963,-0.69,-1.23,0.68,1.56
16.973,-0.30,0.53,-1.41,1.54
16.984,0.42,-1.92,2.08,2.86
16.994,1.74,2.83,-0.51,3.36
17.004,0.07,-0.56,-0.67,0.88
17.014,0.81,0.98,-0.31,1.31
17.024,-0.40,0.97,0.13,1.05
17.034,-2.82,-1.08,0.74,3.11
17.044,-1.17,0.73,-1.30,1.90
17.054,-0.94,-0.87,-0.07,1.29
17.064,0.60,0.75,-0.66,1.17
17.074,0.88,-0.94,0.77,1.50
17.084,1.15,0.08,0.06,1.15
17.095,-0.48,-0.75,0.31,0.95
17.105,-0.43,-0.00,-0.67,0.80
17.115,0.30,-0.41,0.68,0.85
17.125,1.30,1.01,0.01,1.65
17.135,1.03,1.03,-0.63,1.59
17.145,0.09,0.49,0.40,0.64
17.155,-0.78,0.93,-0.54,1.33
17.165,-2.05,-1.32,0.77,2.56
17.175,-1.06,1.09,-1.59,2.20
17.185,-0.57,-1.76,0.14,1.86
17.195,0.45,0.44,0.77,1.00
17.205,0.47,-0.62,-0.61,1.00
17.215,0.27,0.02,0.20,0.34
17.226,0.23,0.30,-0.33,0.51
17.236,-0.67,-0.57,-0.07,0.89
17.246,0.92,0.98,0.29,1.38
17.256,0.47,-0.78,1.08,1.41
17.266,0.96,1.46,-1.37,2.22
17.276,0.13,-0.67,0.87,1.11
17.286,-0.62,0.81,-1.56,1.86
17.296,-2.03,-1.20,1.65,2.88
17.306,-0.73,1.19,-1.04,1.74
17.316,-0.64,-0.99,-0.99,1.54
17.326,-0.11,0.71,0.70,1.01
17.336,0.69,0.40,-0.54,0.96
17.347,-0.30,-1.01,0.82,1.34
17.357,1.05,0.80,-0.83,1.56
17.367,-0.26,-1.09,0.62,1.28
17.377,0.26,0.15,-0.43,0.53
17.387,0.62,-0.25,1.36,1.51
17.397,1.68,1.34,-1.28,2.50
17.407,-0.67,-0.86,0.15,1.10
17.417,0.31,1.43,-0.58,1.57
17.427,-2.33,-1.08,1.17,2.83
17.437,-1.68,0.76,-1.74,2.54
17.447,-0.21,-1.36,0.35,1.42
17.458,0.57,0.95,-0.54,1.23
17.468,-0.29,-0.93,0.34,1.03
17.478,0.45,-0.51,0.66,0.95
17.488,0.47,1.18,-1.09,1.67
17.498,-0.61,-2.03,1.14,2.41
17.508,1.23,2.72,-1.06,3.17
17.518,0.92,-1.50,2.06,2.71
17.528,0.94,1.66,-2.63,3.25
17.538,-0.07,-0.21,1.58,1.60
17.548,-1.61,-0.62,-1.08,2.03
17.558,-1.69,0.14,0.35,1.73
17.568,-1.36,0.30,0.15,1.41
17.579,0.27,0.11,-1.68,1.70
17.589,0.59,-0.02,1.47,1.59
17.599,0.76,-0.10,-0.96,1.23
17.609,-0.37,-1.01,0.74,1.31
17.619,-0.33,-0.49,0.07,0.59
17.629,0.33,0.30,-0.71,0.84
17.639,1.07,0.87,1.28,1.88
17.649,1.01,1.12,-1.03,1.82
17.659,0.50,0.70,-0.43,0.96
17.669,-0.52,0.30,0.58,0.84
17.680,-1.30,-0.90,-0.54,1.67
17.689,-1.31,-1.27,0.62,1.92
17.700,-1.06,0.82,-0.81,1.57
17.710,-0.18,-0.57,-0.12,0.61
17.720,0.34,1.10,-0.21,1.17
17.730,0.31,-0.21,0.42,0.56
17.740,0.32,-0.34,-0.30,0.56
17.750,-0.37,-0.50,-0.13,0.63
17.760,0.26,-0.63,0.25,0.72
17.770,1.77,0.72,0.79,2.07
17.780,0.55,0.89,0.12,1.06
17.790,0.70,0.89,0.81,1.39
17.800,-0.70,-1.24,2.89,3.22
17.811,-0.91,0.71,-3.89,4.06
17.821,-1.68,-0.79,-3.39,3.86
17.831,-1.33,1.19,-4.05,4.42
