time,ax,ay,az,atotal
0.000,1.13,-1.41,3.61,4.03
0.010,-0.86,-1.85,3.55,4.09
0.021,0.92,1.20,-1.79,2.34
0.031,-0.14,-1.05,-3.31,3.48
0.041,1.31,0.42,-1.53,2.06
0.051,-0.02,1.46,0.20,1.47
0.061,0.65,-0.94,3.60,3.78
0.071,1.19,1.18,-0.07,1.67
0.081,-0.10,0.55,-0.72,0.91
0.091,-0.80,-0.53,-1.09,1.45
0.101,-1.13,0.31,-0.98,1.53
0.111,-2.25,-1.21,0.57,2.62
0.121,-0.52,0.08,0.70,0.88
0.131,0.23,0.35,-0.91,1.01
0.141,0.35,-1.73,1.26,2.16
0.151,1.87,2.83,-1.58,3.74
0.162,-0.42,-2.39,0.55,2.49
0.172,-0.41,0.86,-1.15,1.50
0.182,0.50,-0.82,3.18,3.32
0.192,1.11,1.81,-1.33,2.50
0.202,0.49,-0.41,-0.87,1.08
0.212,0.05,0.23,-0.26,0.35
0.222,-0.06,0.76,0.07,0.77
0.232,-2.15,-0.36,0.43,2.22
0.242,-0.95,-0.15,-0.29,1.00
0.252,-1.32,-0.87,1.36,2.08
0.262,0.97,1.10,-2.49,2.89
0.272,0.08,-2.07,-0.10,2.07
0.283,0.07,0.62,0.98,1.16
0.293,0.17,0.58,-1.01,1.18
0.303,-0.07,-0.63,1.52,1.65
0.313,1.89,1.35,0.53,2.38
0.323,1.16,0.29,-1.34,1.79
0.333,0.15,-0.18,-0.48,0.54
0.343,-0.04,0.16,0.61,0.63
0.353,-1.78,-0.26,0.25,1.81
0.363,-0.84,0.17,0.30,0.91
0.373,-0.82,-0.43,-0.75,1.19
0.383,-0.92,0.46,-1.60,1.90
0.394,-0.61,-1.29,0.81,1.64
0.404,0.76,0.33,0.74,1.11
0.414,0.74,-0.14,-0.59,0.95
0.424,-0.11,-0.84,0.15,0.86
0.434,1.18,1.80,-0.82,2.30
0.444,0.17,-0.32,1.53,1.57
0.454,0.96,1.37,-0.94,1.92
0.464,0.40,-0.98,0.59,1.21
0.474,-0.25,0.80,-0.81,1.17
0.484,-1.76,-1.10,-0.09,2.08
0.494,-2.27,-0.52,0.96,2.52
0.504,0.03,1.77,-2.11,2.75
0.514,-0.40,-1.71,1.92,2.60
0.525,1.11,1.14,-1.34,2.08
0.535,0.26,-0.31,-0.29,0.50
0.545,0.53,-0.44,0.24,0.73
0.555,-1.13,0.42,-0.38,1.26
0.565,0.46,0.22,0.57,0.76
0.575,1.43,0.88,0.81,1.86
0.585,1.45,0.18,-0.12,1.47
0.595,0.11,-0.86,-0.43,0.96
0.605,-0.64,-0.15,0.18,0.68
0.615,-1.83,-0.82,-0.48,2.06
0.626,-1.07,1.00,-1.04,1.79
0.635,-1.58,0.51,1.17,2.03
0.646,0.72,1.38,-1.67,2.28
0.656,1.60,-0.02,1.15,1.97
0.666,-0.00,-0.92,-0.31,0.97
0.676,-0.53,-1.69,-0.18,1.78
0.686,0.32,-0.63,0.85,1.10
0.696,-0.76,-0.59,-0.13,0.98
0.706,0.00,0.16,-0.30,0.34
0.716,2.65,2.52,-0.46,3.68
0.726,0.86,0.46,1.02,1.41
0.736,-0.15,1.68,-1.74,2.42
0.747,-1.80,-1.83,1.45,2.95
0.757,-1.77,0.56,-0.70,1.98
0.767,-0.49,-0.24,-0.87,1.03
0.777,-0.39,-1.51,0.33,1.59
0.787,-0.14,0.64,0.09,0.66
0.797,0.69,0.17,0.40,0.81
0.807,0.37,-1.18,-0.35,1.29
0.817,-0.27,-0.30,-0.05,0.40
0.827,1.06,-0.15,-0.53,1.20
0.837,0.21,0.67,1.60,1.75
0.847,0.98,1.69,-1.03,2.21
0.857,0.34,-0.44,-0.38,0.67
0.867,-0.69,1.85,0.56,2.05
0.878,-0.35,-0.68,-1.06,1.31
0.888,-2.15,-1.83,0.94,2.98
0.898,-0.08,0.87,-1.02,1.34
0.908,-0.88,-0.87,0.02,1.24
0.918,0.05,-0.85,0.45,0.97
0.928,0.17,0.64,0.25,0.70
0.938,1.61,0.52,-1.47,2.24
0.948,-0.93,-1.31,1.40,2.13
0.958,0.68,2.15,-0.27,2.27
0.968,1.80,-1.28,0.78,2.34
0.978,0.11,0.19,-0.48,0.53
0.989,-0.14,0.27,-1.58,1.61
0.999,-0.68,-0.41,1.73,1.90
1.009,-0.68,1.66,-0.61,1.90
1.019,-2.48,-0.48,-0.10,2.53
1.029,0.46,1.47,-1.84,2.40
1.039,-0.05,-0.47,0.67,0.82
1.049,0.51,-0.24,-0.02,0.56
1.059,0.04,-1.96,1.46,2.44
1.069,0.15,-0.39,0.16,0.45
1.079,0.34,0.34,-1.76,1.82
1.089,-0.20,-1.02,0.82,1.32
1.099,1.12,1.83,-0.18,2.15
1.110,1.57,0.30,-0.28,1.62
1.120,0.15,0.80,0.77,1.13
1.130,-0.71,1.22,-0.44,1.48
1.140,-2.61,-1.15,-0.47,2.89
1.150,-1.05,1.06,-0.86,1.72
1.160,-0.50,-1.07,0.74,1.40
1.170,-0.22,-0.37,0.12,0.45
1.180,0.76,-0.91,0.03,1.18
1.190,1.28,-0.12,-0.67,1.45
1.200,-0.76,0.02,0.22,0.79
1.210,-0.79,-0.80,-0.22,1.15
1.221,0.92,1.40,0.48,1.74
1.231,1.34,0.78,1.80,2.38
1.241,1.49,0.68,-2.64,3.11
1.251,-0.10,-0.16,0.56,0.59
1.261,-0.43,0.91,-0.12,1.01
1.271,-2.44,-1.73,0.65,3.06
1.281,-1.63,1.28,-1.06,2.33
1.291,-0.58,-1.19,0.62,1.46
1.301,1.25,1.13,-0.76,1.85
1.311,0.66,-0.88,-0.73,1.32
1.321,0.54,-0.45,1.40,1.57
1.331,0.12,0.16,-0.69,0.71
1.342,-2.01,-2.20,0.93,3.12
1.352,0.09,1.94,-2.17,2.91
1.362,0.94,-1.60,3.30,3.78
1.372,1.98,3.15,-2.38,4.41
1.382,0.60,-1.23,1.45,2.00
1.392,0.00,2.02,-1.20,2.35
1.402,-2.21,-0.16,-0.33,2.24
1.412,-2.83,-0.16,-0.32,2.85
1.422,-0.13,0.75,-1.18,1.40
1.432,0.35,-1.60,2.45,2.95
1.442,0.99,0.50,-1.97,2.26
1.452,-0.80,-2.61,2.47,3.68
1.463,0.80,0.50,-2.02,2.23
1.473,-0.10,-1.35,0.53,1.45
1.483,0.16,0.92,-0.83,1.25
1.493,1.15,0.77,1.53,2.06
1.503,1.62,1.58,-0.78,2.39
1.513,0.34,0.61,-0.23,0.73
1.523,-0.15,0.98,1.17,1.53
1.533,-3.08,0.03,-2.14,3.75
1.543,-1.92,-2.07,0.41,2.85
1.553,0.32,1.13,-0.58,1.31
1.563,-0.06,-2.06,1.03,2.30
1.573,1.15,0.13,0.52,1.27
1.583,0.40,0.16,-1.19,1.27
1.594,-0.98,-0.84,0.43,1.36
1.604,0.51,0.93,-0.74,1.29
1.614,0.46,-0.51,1.26,1.44
1.624,1.88,1.88,-0.84,2.79
1.634,-0.48,-0.74,0.82,1.20
1.644,0.81,1.57,-1.02,2.04
1.654,-0.89,-0.17,0.78,1.19
1.664,-2.65,-0.12,-0.84,2.78
1.674,-1.22,-0.44,-0.02,1.29
1.684,0.56,0.45,-0.34,0.80
1.695,0.43,-1.09,-0.43,1.24
1.705,0.15,-1.10,1.28,1.69
1.715,0.39,0.24,-0.48,0.66
1.725,-0.52,-0.27,-0.56,0.81
1.735,-0.10,-0.01,-0.55,0.56
1.745,0.72,1.03,1.55,1.99
1.755,2.00,1.52,0.66,2.60
1.765,1.10,0.46,-1.67,2.05
1.775,-0.98,-0.61,0.52,1.26
1.785,-1.10,0.80,-1.10,1.75
1.795,-2.50,-1.50,1.46,3.26
1.805,-0.80,2.15,-1.76,2.89
1.815,-0.27,-2.31,0.59,2.40
1.826,0.89,1.27,-0.26,1.57
1.836,1.31,-0.31,-0.32,1.39
1.846,-0.78,-2.60,1.30,3.01
1.856,0.15,0.91,-0.50,1.05
1.866,-0.39,-0.79,0.35,0.95
1.876,1.74,0.59,-0.41,1.89
1.886,0.90,1.51,-0.14,1.77
1.896,1.11,1.06,-0.52,1.62
1.906,-0.50,0.55,0.88,1.16
1.916,-1.58,0.19,-1.58,2.24
1.927,-2.88,-1.70,1.39,3.62
1.936,0.09,1.77,-1.96,2.64
1.947,0.22,-1.98,1.00,2.22
1.957,0.68,-0.03,0.86,1.10
1.967,-0.45,-0.44,-1.65,1.77
1.977,0.26,-1.37,1.60,2.12
1.987,0.38,1.81,-1.99,2.71
1.997,-1.16,-2.09,1.63,2.89
2.007,2.23,2.52,0.32,3.38
2.017,1.05,0.36,-0.64,1.28
2.027,-0.04,0.02,0.24,0.24
2.037,0.70,0.97,-0.72,1.39
2.048,-2.24,-1.29,0.80,2.70
2.058,-1.98,0.90,-1.27,2.52
2.068,-1.66,-1.06,0.41,2.01
2.078,0.69,1.21,-1.25,1.87
2.088,0.85,-1.11,1.65,2.16
2.098,1.21,0.53,-0.44,1.39
2.108,-0.19,-0.67,-0.13,0.71
2.118,-0.47,-0.76,-0.75,1.17
2.128,-0.28,-0.41,0.31,0.58
2.138,0.80,0.34,1.61,1.83
2.148,1.56,0.72,0.00,1.72
2.159,0.05,0.88,-1.61,1.84
2.169,0.21,0.03,-0.08,0.22
2.179,-1.54,0.09,0.12,1.55
2.189,-2.09,1.04,-0.12,2.33
2.199,-0.86,-1.52,0.01,1.75
2.209,0.01,0.53,-0.10,0.54
2.219,0.05,0.13,-0.50,0.52
2.229,1.41,-1.83,0.33,2.33
2.239,0.46,0.62,0.31,0.83
2.249,-1.15,-1.54,0.01,1.92
2.259,1.10,1.32,-0.68,1.85
2.269,0.89,0.66,1.60,1.94
2.279,0.87,0.89,-2.50,2.79
2.290,0.10,0.31,1.46,1.50
2.300,-0.47,1.31,0.43,1.46
2.310,-1.79,-1.24,-0.74,2.29
2.320,-0.86,-0.09,-0.01,0.87
2.330,-0.81,-0.89,-1.50,1.92
2.340,-0.50,-0.80,0.52,1.07
2.350,1.01,0.46,0.81,1.37
2.360,0.16,-0.92,0.13,0.95
2.370,-0.10,0.73,-0.54,0.92
2.380,0.03,0.26,-0.37,0.45
2.390,0.46,-0.13,0.43,0.64
2.400,1.48,1.10,0.55,1.93
2.411,1.35,0.08,-0.18,1.37
2.421,-0.38,0.52,-0.54,0.84
2.431,-1.21,-0.29,0.27,1.28
2.441,-1.84,0.03,-0.56,1.93
2.451,-1.38,-0.05,0.23,1.40
2.461,-0.27,-0.39,-1.15,1.25
2.471,0.49,-0.30,0.45,0.73
2.481,0.53,-0.09,0.59,0.80
2.491,0.18,-1.00,-0.24,1.05
2.501,0.05,0.33,-0.04,0.34
2.511,0.47,-0.14,-0.50,0.70
2.522,-0.11,0.08,0.74,0.75
2.532,1.56,1.52,-0.28,2.20
2.542,0.48,-0.31,0.65,0.86
2.552,0.64,1.51,-1.46,2.20
2.562,-1.42,-1.68,1.58,2.71
2.572,-1.48,1.12,-1.99,2.72
2.582,-1.58,-1.04,1.24,2.27
2.592,-0.18,1.12,-1.31,1.73
2.602,0.02,-0.80,0.34,0.87
2.612,1.34,0.52,-0.09,1.44
2.622,0.23,-1.15,0.57,1.31
2.632,-1.24,-0.79,-0.37,1.52
2.643,-0.49,-0.29,-0.69,0.90
2.653,1.18,0.11,1.85,2.19
2.663,1.62,1.81,-0.96,2.61
2.673,1.05,0.41,0.28,1.16
2.683,0.34,1.07,-0.62,1.28
2.693,-2.00,-0.99,-0.01,2.23
2.703,-1.90,-0.26,0.35,1.95
2.713,-1.46,-0.54,-0.20,1.57
2.723,0.21,0.33,-1.32,1.38
2.733,0.76,0.16,0.78,1.10
2.743,0.82,0.13,-0.24,0.87
2.753,0.16,-0.48,0.44,0.67
2.764,-0.50,-0.34,0.15,0.63
2.774,-0.48,-0.63,-0.87,1.17
2.784,-0.09,-0.68,1.23,1.40
2.794,2.29,2.05,-0.23,3.08
2.804,0.88,0.49,0.06,1.01
2.814,0.11,0.35,-0.75,0.84
2.824,-0.92,-0.08,0.51,1.06
2.834,-1.63,-0.39,-0.73,1.83
2.844,-2.27,-0.35,0.27,2.32
2.854,-0.71,0.08,-0.99,1.22
2.864,0.49,-0.26,0.96,1.11
2.874,1.55,0.79,-1.02,2.02
2.885,0.04,-1.12,0.88,1.43
2.895,-0.35,0.21,-0.28,0.49
2.905,0.52,-0.28,-0.37,0.70
2.915,0.19,-0.64,0.86,1.09
2.925,1.22,1.04,-0.44,1.66
2.935,1.01,0.98,0.47,1.48
2.945,0.05,1.32,-0.57,1.44
2.955,-1.66,-1.28,-0.36,2.13
2.965,-1.15,-0.25,0.25,1.20
2.975,-1.09,-0.14,-0.11,1.10
2.985,-0.62,-1.19,-0.80,1.56
2.996,0.40,0.58,0.50,0.87
3.006,0.67,-0.17,-0.10,0.70
3.016,-0.24,0.71,0.02,0.75
3.026,0.54,0.68,-0.45,0.98
3.036,-0.17,-1.40,0.35,1.45
3.046,1.14,0.82,0.52,1.49
3.056,1.69,-0.13,0.11,1.69
3.066,-0.36,-0.09,-0.81,0.89
3.076,-0.63,0.17,0.45,0.80
3.086,-0.75,0.73,-0.68,1.25
3.096,-2.46,-0.29,0.50,2.52
3.106,-0.36,1.46,-1.14,1.89
3.117,0.65,-0.84,-0.37,1.13
3.127,-0.23,-0.58,0.69,0.93
3.137,0.55,-0.44,-0.47,0.85
3.147,-0.38,-1.45,1.33,2.00
3.157,0.27,0.94,-1.07,1.45
3.167,0.10,-0.75,-0.12,0.77
3.177,0.57,0.64,0.91,1.25
3.187,2.00,1.82,-0.34,2.72
3.197,0.85,0.66,-0.20,1.09
3.207,-1.21,-0.32,0.27,1.28
3.217,-1.00,0.38,-1.24,1.63
3.227,-2.57,-1.54,1.14,3.20
3.237,-0.76,1.68,-1.34,2.28
3.248,0.69,-1.70,0.46,1.89
3.258,0.47,0.84,-0.21,0.99
3.268,1.02,-0.48,0.44,1.21
3.278,-0.81,-0.73,-0.35,1.14
3.288,-0.76,-0.20,-0.16,0.80
3.298,0.11,-1.35,0.28,1.39
3.308,0.74,1.37,0.45,1.62
3.318,1.85,0.46,0.74,2.04
3.328,1.19,1.52,-1.96,2.75
3.338,-0.50,0.11,0.95,1.08
3.349,-1.43,0.19,-0.37,1.49
3.359,-2.17,-0.65,0.14,2.28
3.369,-1.38,-0.68,-0.49,1.61
3.379,0.67,0.39,-1.03,1.29
3.389,0.18,-0.59,1.15,1.30
3.399,1.21,0.85,-0.69,1.62
3.409,0.23,-1.52,0.83,1.75
3.419,-0.61,-0.23,-0.21,0.69
3.429,-0.44,-0.54,-0.36,0.78
3.439,-0.41,-1.22,1.13,1.71
3.449,2.10,3.35,-2.05,4.45
3.459,1.05,-1.44,2.46,3.04
3.469,0.60,2.92,-2.54,3.92
3.480,-0.92,0.44,1.98,2.22
3.490,-3.61,-0.93,-0.17,3.73
3.500,-0.17,0.83,-3.14,3.26
3.510,-0.29,-1.96,2.86,3.48
3.520,0.61,0.25,-2.75,2.83
3.530,0.42,-1.80,3.13,3.64
3.540,0.80,0.71,-1.20,1.60
3.550,-0.58,-1.52,0.05,1.63
3.560,0.06,0.87,-0.35,0.94
3.570,0.66,0.41,1.11,1.36
3.580,1.07,1.30,-0.71,1.83
3.591,0.59,0.87,0.13,1.06
3.600,0.08,0.46,0.04,0.47
3.611,-2.56,0.49,-0.97,2.78
3.621,-1.78,-1.15,0.15,2.12
3.631,-0.43,0.42,-0.48,0.77
3.641,0.07,-0.99,0.49,1.11
3.651,0.94,-0.72,-0.21,1.21
3.661,0.94,0.50,0.27,1.10
3.671,-0.51,-0.70,0.21,0.89
3.681,-0.34,0.49,-1.38,1.50
3.691,0.07,-0.59,1.67,1.78
3.702,2.01,1.17,-0.46,2.37
3.712,0.44,-0.15,0.21,0.51
3.722,0.55,1.10,-0.44,1.30
3.732,-0.88,0.20,0.20,0.92
3.742,-2.34,0.37,-0.28,2.39
3.752,-1.67,-0.11,-0.69,1.81
3.762,-0.10,-0.20,-0.54,0.58
3.772,0.68,-0.74,0.57,1.16
3.782,0.72,-0.46,0.06,0.86
3.792,0.01,-1.24,0.72,1.43
3.802,0.25,0.54,-0.89,1.07
3.812,-0.33,-0.62,-0.12,0.71
3.822,0.34,0.89,0.71,1.19
3.833,1.57,1.19,0.24,1.98
3.843,0.94,0.84,-1.07,1.66
3.853,-0.15,0.11,0.84,0.86
3.863,-0.99,-0.09,-1.02,1.42
3.873,-1.98,-0.99,0.79,2.35
3.883,-0.93,0.98,-0.53,1.45
3.893,-0.55,-1.01,-0.43,1.23
3.903,0.59,0.79,-0.29,1.03
3.913,0.73,-0.28,0.51,0.93
3.923,0.23,-0.29,-0.34,0.50
3.933,-0.89,-0.41,0.29,1.03
3.944,0.26,-0.48,-0.33,0.64
3.954,0.57,0.29,0.62,0.89
3.964,1.31,0.68,0.32,1.51
3.974,0.99,0.59,-0.78,1.39
3.984,0.42,0.54,0.63,0.93
3.994,-1.33,-0.16,-0.89,1.61
4.004,-2.50,-0.61,0.38,2.60
4.014,-1.44,0.07,-0.50,1.53
4.024,0.19,0.44,-0.60,0.77
4.034,0.69,-0.71,0.25,1.02
4.044,1.05,0.17,-0.16,1.07
4.054,0.11,-0.46,0.70,0.85
4.065,-0.50,-0.64,-0.42,0.91
4.075,-0.95,-0.91,-0.06,1.31
4.085,1.09,0.38,0.40,1.22
4.095,1.76,1.10,0.51,2.14
4.105,0.93,0.46,-0.99,1.43
4.115,0.06,0.45,0.64,0.79
4.125,-1.32,0.98,-0.27,1.66
4.135,-2.89,-0.47,-0.56,2.98
4.145,-1.61,-0.16,-1.33,2.10
4.155,0.39,-0.04,0.98,1.06
4.165,1.42,0.06,-0.13,1.43
4.175,0.44,-0.97,1.29,1.68
4.186,0.47,0.26,-1.41,1.51
4.196,-0.13,-1.48,-0.34,1.53
4.206,0.20,0.92,0.35,1.01
4.216,0.21,-0.36,1.93,1.97
4.226,1.28,1.50,-1.23,2.32
4.236,0.43,0.48,-0.06,0.65
4.246,-0.53,0.28,-1.15,1.30
4.256,-0.43,0.31,1.03,1.16
4.266,-2.06,-0.51,-0.40,2.16
4.276,-1.04,-0.47,-0.68,1.33
4.286,-0.56,0.21,0.04,0.60
4.297,0.27,-0.30,-0.25,0.47
4.307,1.45,-0.26,0.46,1.55
4.317,-0.22,-0.58,0.50,0.80
4.327,0.17,0.22,-0.74,0.79
4.337,0.17,-0.29,0.24,0.41
4.347,0.57,1.09,0.57,1.36
4.357,0.58,0.02,-0.50,0.77
4.367,0.56,0.36,-0.07,0.67
4.377,0.42,1.18,0.20,1.27
4.387,-1.39,-0.94,-0.02,1.68
4.397,-1.42,0.63,-0.51,1.64
4.408,-1.82,-1.32,-0.69,2.35
4.417,0.35,0.50,-0.56,0.83
4.428,0.02,-1.20,2.01,2.34
4.438,0.86,0.52,-1.59,1.88
4.448,0.53,-1.09,1.12,1.64
4.458,0.02,0.60,-0.80,1.00
4.468,-0.10,0.19,-0.22,0.31
4.478,0.36,0.00,1.39,1.43
4.488,1.74,1.77,-1.09,2.71
4.498,0.29,-0.70,0.27,0.81
4.508,0.31,1.39,-0.21,1.44
4.518,-1.39,-1.04,0.12,1.74
4.529,-2.40,0.05,-0.35,2.43
4.539,-0.98,-0.35,-0.24,1.07
4.549,-0.16,-0.20,-1.01,1.04
4.559,0.65,-0.22,0.82,1.07
4.569,0.79,-0.69,0.11,1.06
4.579,-0.07,0.11,0.15,0.20
4.589,-0.18,-0.65,-0.50,0.84
4.599,-0.16,-0.26,0.23,0.38
4.609,1.28,1.32,0.97,2.08
4.619,0.86,0.09,-1.00,1.33
4.629,1.01,0.79,-0.11,1.29
4.640,-0.39,0.64,0.74,1.05
4.649,-2.14,-0.40,-0.85,2.34
4.660,-1.52,0.02,0.28,1.55
4.670,-1.26,0.01,-1.01,1.62
4.680,0.59,-0.50,-0.27,0.82
4.690,1.34,-0.26,1.02,1.70
4.700,-0.06,-0.99,-0.34,1.04
4.710,-0.12,-0.10,0.28,0.32
4.720,-0.38,-0.11,-0.65,0.76
4.730,0.05,-0.23,0.56,0.61
4.740,1.51,1.28,0.51,2.04
4.750,1.07,0.65,-0.62,1.39
4.760,1.35,1.22,-0.39,1.86
4.770,-1.00,-0.14,1.13,1.51
4.781,-2.07,-0.46,-1.65,2.69
4.791,-2.35,-1.15,1.13,2.85
4.801,-0.29,1.48,-1.79,2.34
4.811,0.42,-1.47,0.64,1.65
4.821,0.99,0.64,0.41,1.25
4.831,0.20,-0.34,0.02,0.40
4.841,0.24,-0.20,-0.94,0.99
4.851,-0.58,-0.90,1.17,1.58
4.861,0.48,0.34,-0.64,0.87
4.871,1.31,0.50,1.15,1.81
4.881,0.94,1.62,-0.76,2.02
4.892,0.01,-0.16,-0.27,0.32
4.902,-0.79,0.24,-0.24,0.86
4.912,-1.01,-0.57,0.24,1.19
4.922,-1.56,-0.13,0.18,1.58
4.932,-0.74,0.09,-1.63,1.79
4.942,-0.34,-0.74,1.37,1.60
4.952,0.75,1.71,-1.13,2.18
4.962,0.24,-1.76,0.86,1.98
4.972,0.32,0.33,-0.36,0.58
4.982,-0.03,-0.77,0.10,0.78
4.992,0.70,0.08,0.33,0.77
5.002,1.50,0.86,-0.17,1.74
5.013,0.27,0.40,0.28,0.56
5.023,-0.20,1.38,-0.39,1.45
5.033,-1.01,-0.32,-0.19,1.08
5.043,-0.94,-0.62,-0.38,1.19
5.053,-1.10,-0.85,0.19,1.40
5.063,-0.79,0.12,-0.77,1.11
5.073,-0.19,-0.66,0.69,0.97
5.083,0.77,1.11,-0.38,1.40
5.093,0.18,-0.13,0.27,0.35
5.103,0.47,0.23,-0.66,0.84
5.113,0.45,-0.82,0.18,0.95
5.124,-0.02,-0.00,1.30,1.30
5.134,1.73,0.30,-0.56,1.84
5.144,0.13,-0.33,0.39,0.52
5.154,-0.24,1.30,-1.24,1.81
5.164,-1.08,-0.82,-0.20,1.37
5.174,-1.13,1.66,1.35,2.42
5.184,-1.15,0.00,-1.50,1.89
5.194,-0.71,-0.91,-0.35,1.21
5.204,1.23,1.34,0.69,1.95
5.214,0.01,-2.14,-0.79,2.28
5.224,-0.62,-0.21,1.44,1.58
5.234,0.95,-0.49,-0.64,1.25
5.245,-0.51,-0.45,-0.55,0.87
5.255,-0.03,0.39,0.76,0.85
5.265,1.63,0.62,0.04,1.74
5.275,1.17,1.66,-0.20,2.04
5.285,0.20,0.45,-0.15,0.51
5.295,-1.54,-0.40,-0.20,1.61
5.305,-2.55,-0.15,-0.48,2.60
5.315,-0.61,0.18,-0.09,0.65
5.325,-0.15,-0.42,0.09,0.45
5.335,0.17,-0.38,-0.05,0.42
5.345,1.41,0.08,-0.15,1.42
5.355,0.60,-0.49,0.23,0.81
5.366,-1.38,-0.26,-0.45,1.47
5.376,-0.51,-1.07,0.31,1.23
5.386,0.57,1.06,0.28,1.24
5.396,1.68,0.63,0.73,1.94
5.406,1.25,0.44,-1.53,2.03
5.416,0.31,0.58,0.74,0.99
5.426,-0.60,0.43,-0.41,0.84
5.436,-2.97,-0.88,0.42,3.13
5.446,-1.54,0.83,-0.87,1.95
5.456,-0.34,-0.80,-0.50,1.00
5.466,0.81,0.71,0.56,1.21
5.476,1.04,-0.85,-0.45,1.42
5.487,-0.27,-1.36,0.84,1.62
5.497,0.35,1.03,-0.58,1.23
5.507,-0.15,-1.97,-0.04,1.98
5.517,-0.67,0.71,0.17,0.99
5.527,2.09,1.47,0.65,2.64
5.537,0.48,0.31,0.19,0.60
5.547,0.95,1.89,-2.18,3.04
5.557,-1.11,-1.30,1.86,2.53
5.567,-1.86,1.83,-1.66,3.09
5.577,-2.53,-2.49,1.75,3.96
5.587,0.25,1.78,-2.40,3.00
5.598,0.96,-1.74,1.24,2.34
5.608,0.54,-0.05,0.06,0.55
5.618,0.30,-0.55,0.10,0.63
5.628,0.22,-0.74,-0.17,0.79
5.638,-1.03,-0.06,-0.02,1.03
5.648,0.65,0.58,0.06,0.87
5.658,1.80,1.22,0.60,2.26
5.668,0.81,1.05,-1.01,1.66
5.678,0.01,0.16,0.49,0.52
5.688,-0.67,0.77,0.24,1.05
5.698,-3.63,-1.33,-0.85,3.96
5.709,-0.80,0.09,-0.96,1.25
5.718,0.62,-0.36,0.88,1.13
5.729,0.03,-0.23,-1.00,1.02
5.738,0.60,-1.00,1.86,2.19
5.749,1.11,1.04,-0.75,1.70
5.759,-0.56,-0.80,-0.50,1.09
5.769,-0.42,-0.23,0.19,0.51
5.779,1.43,1.22,0.79,2.03
5.789,0.93,0.10,-0.81,1.24
5.799,0.21,0.71,0.71,1.03
5.809,-0.12,0.70,-0.52,0.88
5.819,-1.75,-0.65,-0.15,1.87
5.829,-1.99,0.64,-0.03,2.09
5.840,-0.78,-0.53,-1.46,1.74
5.850,0.76,0.17,1.08,1.34
5.860,0.48,-0.21,-0.46,0.70
5.870,-0.37,-1.26,1.05,1.68
5.880,0.88,0.96,-1.00,1.64
5.890,-0.90,-0.92,-0.14,1.30
5.900,0.46,0.39,0.48,0.77
5.910,1.45,0.22,0.74,1.64
5.920,1.18,0.81,-0.68,1.58
5.931,0.24,0.13,0.02,0.28
5.940,-1.03,0.12,0.12,1.04
5.950,-1.46,-0.25,-0.25,1.50
5.961,-1.18,0.30,-0.60,1.36
5.971,-0.58,0.11,-0.19,0.62
5.981,0.19,-0.00,-0.35,0.40
5.991,0.29,-0.46,0.82,0.99
6.001,-0.16,-0.17,-0.50,0.55
6.011,-0.38,-1.47,0.15,1.53
6.021,0.52,0.29,-0.38,0.70
6.031,0.16,-0.28,0.68,0.76
6.041,1.26,1.21,0.08,1.75
6.051,1.70,0.51,0.19,1.78
6.061,0.24,1.05,-1.17,1.58
6.072,-0.73,-0.36,0.81,1.15
6.082,-1.38,0.44,0.24,1.47
6.092,-2.23,-0.55,-0.72,2.41
6.102,-1.11,-0.13,-1.25,1.68
6.112,0.45,0.46,0.27,0.70
6.122,1.11,-0.27,0.59,1.29
6.132,0.29,-0.72,0.28,0.83
6.142,0.08,-0.38,-0.15,0.41
6.152,-0.52,-1.35,-0.93,1.72
6.162,-0.02,0.06,1.09,1.09
6.172,2.04,1.94,0.79,2.93
6.182,0.87,-0.11,-1.47,1.72
6.193,0.21,0.79,0.43,0.92
6.203,-0.58,1.38,-0.02,1.50
6.213,-2.72,-1.24,-0.23,3.00
6.223,-1.67,0.21,-0.09,1.68
6.233,0.68,-0.08,-1.68,1.81
6.243,0.46,-0.43,1.17,1.33
6.253,0.38,-0.37,0.60,0.80
6.263,-0.01,0.19,-0.55,0.58
6.273,0.75,-0.70,-0.20,1.05
6.283,-0.66,-0.26,-0.24,0.75
6.293,0.50,1.13,1.22,1.74
6.303,1.17,0.30,0.07,1.21
6.314,0.33,0.02,-1.23,1.27
6.324,0.52,1.48,0.29,1.59
6.334,-0.50,-0.60,0.66,1.03
6.344,-2.35,-0.52,-0.78,2.53
6.354,-1.43,0.09,-0.42,1.50
6.364,-0.36,-0.38,-0.68,0.86
6.374,0.08,0.19,0.79,0.81
6.384,1.02,-0.49,0.65,1.30
6.394,1.24,0.19,-0.95,1.58
6.404,-0.42,-0.32,-0.13,0.54
6.414,-0.08,0.31,-0.05,0.32
6.425,0.68,-0.01,0.98,1.19
6.434,0.69,0.80,0.10,1.06
6.445,0.42,-0.11,-0.77,0.88
6.455,0.17,0.15,-0.24,0.33
6.465,-0.12,0.57,0.35,0.68
6.475,-1.92,-0.81,-0.12,2.09
6.485,-1.72,-0.10,-0.13,1.73
6.495,-0.37,0.61,-1.18,1.38
6.505,-0.05,-0.87,0.25,0.91
6.515,0.96,0.22,0.41,1.07
6.525,-0.09,-1.35,0.96,1.66
6.535,0.46,1.21,-1.43,1.93
6.546,-0.39,-1.34,0.25,1.42
6.556,0.55,0.20,0.44,0.74
6.566,0.92,0.87,0.28,1.30
6.576,1.49,1.15,-0.42,1.93
6.586,-0.01,0.93,0.04,0.93
6.596,-1.71,-0.40,-0.42,1.81
6.606,-1.27,0.42,0.18,1.35
6.616,-1.06,-0.44,0.29,1.18
6.626,-0.46,-0.61,-1.66,1.83
6.636,0.19,-1.02,1.02,1.46
6.646,0.60,0.63,-0.17,0.89
6.656,-0.24,-0.52,-0.96,1.11
6.667,-0.74,-0.60,2.05,2.26
6.677,1.75,1.02,-1.00,2.26
6.687,0.09,-0.82,0.42,0.92
6.697,2.00,1.20,-1.15,2.60
6.707,0.21,0.02,1.10,1.12
6.717,-0.32,1.48,-1.07,1.86
6.727,-1.92,-1.03,1.62,2.72
6.737,-1.73,0.40,-1.12,2.10
6.747,-1.03,-0.20,-0.97,1.43
6.757,0.65,-0.25,-0.48,0.85
6.767,0.42,-0.60,1.15,1.36
6.778,0.94,0.25,0.02,0.97
6.787,-0.39,-1.21,0.52,1.37
6.798,-0.71,0.36,-1.76,1.93
6.808,0.09,-0.96,1.21,1.54
6.818,1.59,2.20,0.52,2.76
6.828,1.38,0.70,-1.27,2.00
6.838,0.92,0.36,1.11,1.48
6.848,-0.75,0.62,-0.75,1.23
6.858,-2.42,-1.74,0.38,3.00
6.868,-1.06,0.56,-0.68,1.38
6.878,-0.78,-0.79,-0.12,1.11
6.888,-0.13,0.90,-0.53,1.05
6.898,-0.10,0.08,0.50,0.51
6.909,1.19,-0.11,-0.94,1.52
6.919,0.05,-0.47,1.91,1.96
6.929,-0.28,0.68,-2.37,2.49
6.939,0.24,-2.37,0.95,2.57
6.949,1.18,2.33,1.37,2.95
6.959,1.52,0.18,-0.79,1.72
6.969,-0.64,-0.54,0.75,1.13
6.979,-0.16,0.90,-0.57,1.08
6.989,-1.64,-1.44,-1.73,2.78
6.999,-0.84,-0.37,1.43,1.69
7.010,-1.79,1.81,-0.87,2.69
7.020,1.07,-0.51,-1.44,1.87
7.030,-0.21,0.29,2.90,2.92
7.040,2.27,2.44,-3.75,5.01
7.050,-1.30,-4.97,3.39,6.16
7.060,0.64,1.94,-0.98,2.27
7.070,0.21,-0.93,1.01,1.39
7.080,0.00,-0.71,-0.16,0.73
7.090,1.03,2.33,-1.72,3.07
7.100,0.82,0.07,1.36,1.60
7.110,0.22,2.48,-1.56,2.94
7.120,-1.80,-1.77,2.27,3.40
7.130,-1.24,1.13,-2.04,2.64
7.141,-0.02,-0.29,-1.45,1.48
7.151,-2.01,-2.12,2.93,4.14
7.161,0.86,1.53,-3.12,3.58
7.171,0.78,-2.53,3.76,4.60
7.181,-0.38,1.17,-3.01,3.25
7.191,-0.67,-1.54,0.56,1.77
7.201,0.66,0.40,1.22,1.45
7.211,1.29,-0.43,-0.47,1.44
7.221,0.88,0.06,1.26,1.54
7.231,1.11,1.79,-1.71,2.72
7.241,-1.55,-0.99,0.18,1.85
7.251,-0.51,2.52,-1.00,2.76
7.262,-2.50,-1.20,1.18,3.01
7.272,-0.43,0.94,-2.39,2.61
7.282,0.64,-0.98,1.61,1.99
7.292,0.56,0.11,-1.03,1.18
7.302,-0.17,-1.77,1.17,2.13
7.312,0.15,0.13,0.18,0.26
7.322,0.11,-0.22,-1.10,1.12
7.332,-0.58,-0.97,0.95,1.47
7.342,1.66,2.32,-0.90,2.99
7.352,1.49,0.13,1.59,2.18
7.362,0.60,2.81,-2.64,3.90
7.373,-0.30,-0.71,1.94,2.08
7.383,-3.11,0.47,0.09,3.15
7.393,-0.61,-0.10,-2.72,2.79
7.403,-2.31,-1.64,2.44,3.74
7.413,1.77,0.53,-2.72,3.29
7.423,-0.15,-2.88,2.65,3.92
7.433,1.07,2.01,-1.18,2.56
7.443,0.49,-2.10,1.46,2.60
7.453,-0.03,1.69,-2.07,2.67
7.463,-0.78,-0.96,1.11,1.66
7.473,0.67,1.05,0.35,1.29
7.483,1.59,1.40,-0.54,2.19
7.493,0.26,-1.49,1.15,1.90
7.504,0.12,1.76,-2.59,3.13
7.514,-2.21,-1.15,2.56,3.58
7.524,-1.58,0.74,-1.66,2.40
7.534,-0.56,0.08,-0.39,0.69
7.544,-0.36,-0.64,1.01,1.25
7.554,1.18,0.40,-1.02,1.61
7.564,1.31,-0.91,-0.13,1.60
7.574,-0.37,-0.87,0.70,1.18
7.584,-0.46,-0.89,0.19,1.02
7.594,0.05,-0.26,0.49,0.56
7.605,0.93,1.41,-1.02,1.97
7.615,1.56,0.76,0.51,1.81
7.625,0.45,2.18,-1.06,2.46
7.635,-1.36,0.12,0.49,1.45
7.645,-2.44,-0.61,0.73,2.62
7.655,-0.42,0.51,-1.87,1.98
7.665,-0.40,-2.01,0.66,2.15
7.675,0.19,0.27,-0.65,0.73
7.685,0.84,-0.83,0.93,1.51
7.695,0.54,-0.08,0.34,0.65
7.705,0.02,-0.19,-0.35,0.40
7.715,-0.70,-1.23,0.30,1.44
7.725,-0.17,1.11,-1.53,1.90
7.735,1.14,0.10,1.44,1.84
7.746,1.44,2.29,-0.18,2.71
7.756,1.16,0.69,-0.46,1.43
7.766,-1.77,-0.21,1.12,2.11
7.776,-1.64,0.96,-2.50,3.14
7.786,-1.08,-2.55,1.25,3.04
7.796,-0.46,1.35,-0.74,1.60
7.806,-0.40,-1.78,0.91,2.04
7.816,0.90,0.14,-0.79,1.20
7.826,0.61,0.16,-0.36,0.73
7.836,0.16,-0.73,1.21,1.42
7.846,0.08,0.30,-1.33,1.37
7.857,-0.69,-1.04,0.99,1.59
7.867,1.06,1.26,1.01,1.93
7.877,1.08,1.21,-1.68,2.34
7.887,-0.27,-1.01,0.14,1.06
7.897,0.51,2.04,0.36,2.13
7.907,-2.42,-0.26,0.31,2.45
7.917,-1.97,-1.07,-0.76,2.37
7.927,0.87,0.59,-1.08,1.51
7.937,-0.46,-1.59,0.40,1.70
7.947,0.54,0.68,0.71,1.12
7.957,0.65,-1.07,-0.52,1.36
7.968,-1.07,-0.62,0.05,1.24
7.978,1.36,1.21,0.52,1.89
7.988,0.32,-0.55,-0.34,0.72
7.998,1.28,0.56,1.51,2.06
8.008,0.13,2.08,-2.27,3.08
8.018,-0.17,-1.16,0.62,1.33
8.028,-0.81,1.05,-0.18,1.34
8.038,-1.64,0.19,0.66,1.78
8.048,-1.48,-0.65,-1.12,1.97
8.058,0.26,0.19,-0.20,0.38
8.068,0.38,-0.75,-0.40,0.93
8.079,0.70,-0.31,0.98,1.25
8.089,0.07,-0.77,-0.20,0.80
8.099,-1.08,-0.84,0.09,1.37
8.109,1.95,1.28,0.07,2.33
8.119,0.94,0.18,0.50,1.08
8.129,0.19,0.94,-1.07,1.43
8.139,0.52,0.75,0.24,0.94
8.149,0.52,1.04,-0.64,1.32
8.159,-2.94,-1.87,1.48,3.79
8.169,-1.24,0.96,-1.24,2.00
8.179,-0.13,-1.16,-0.77,1.40
8.189,-0.13,-0.05,0.36,0.38
8.199,-0.08,0.67,0.01,0.68
8.210,0.85,-1.32,0.26,1.59
8.220,0.67,0.38,-0.03,0.78
8.230,-1.03,-0.69,-0.51,1.34
8.240,-0.05,-0.28,-0.02,0.28
8.250,1.83,1.89,1.14,2.87
8.260,1.36,0.33,-0.52,1.49
8.270,0.67,0.99,0.12,1.20
8.280,-1.05,-0.09,-0.38,1.12
8.290,-2.44,-1.20,-0.70,2.81
8.300,-1.13,0.14,0.45,1.22
8.310,-1.38,0.08,-1.03,1.72
8.321,1.04,-0.23,0.92,1.41
8.331,1.03,0.15,0.15,1.05
8.341,0.37,-0.24,-0.83,0.94
8.351,0.09,-0.03,-0.09,0.13
8.361,0.10,0.01,0.36,0.37
8.371,-1.14,-1.10,0.55,1.68
8.381,1.28,1.33,0.09,1.85
8.391,1.47,0.23,-1.14,1.88
8.401,0.71,0.83,1.02,1.49
8.411,0.14,0.79,-1.55,1.75
8.421,-2.96,-1.57,2.41,4.13
8.431,-0.87,2.09,-3.22,3.93
8.441,-1.53,-2.32,0.77,2.89
8.452,0.34,1.48,-0.48,1.59
8.462,-0.21,-1.37,1.41,1.97
8.472,1.97,0.65,-0.80,2.22
8.482,0.16,-0.81,0.17,0.84
8.492,-0.78,-0.60,0.04,0.99
8.502,0.43,0.19,-0.37,0.60
8.512,-0.20,-0.22,1.64,1.66
8.522,1.92,2.22,-1.96,3.54
8.532,0.21,-0.95,0.71,1.20
8.542,0.82,1.96,-0.60,2.21
8.552,-2.20,-1.09,0.94,2.63
8.563,-2.09,0.33,-0.97,2.33
8.573,-0.42,-0.44,-1.09,1.24
8.583,-0.83,-0.53,0.79,1.26
8.593,1.39,0.77,-0.27,1.61
8.603,0.12,-2.93,1.82,3.45
8.613,-0.08,1.38,-1.79,2.26
8.623,-0.51,-0.94,0.69,1.28
8.633,0.78,0.00,-1.65,1.83
8.643,2.45,1.45,2.72,3.94
8.653,0.72,1.02,-1.46,1.92
8.664,-0.69,-0.02,0.16,0.71
8.674,-0.84,0.56,0.66,1.21
8.684,-1.29,0.21,-1.64,2.09
8.694,-1.69,-0.96,0.42,1.99
8.704,-0.08,-0.05,-0.97,0.98
8.714,0.09,-0.37,0.76,0.85
8.724,0.70,-0.19,0.11,0.73
8.734,0.46,-1.04,0.02,1.14
8.744,-0.89,-0.03,-0.32,0.94
8.754,0.41,-0.26,0.28,0.56
8.764,1.40,1.03,0.35,1.77
8.774,0.51,0.42,-0.15,0.68
8.784,0.93,0.25,-0.98,1.38
8.794,0.16,0.80,0.74,1.10
8.805,-0.80,0.54,0.10,0.97
8.814,-2.24,-1.07,-0.08,2.48
8.825,-1.57,0.64,-1.49,2.26
8.835,0.15,-0.02,0.52,0.54
8.845,0.32,-0.50,0.52,0.79
8.855,0.35,-0.13,-0.57,0.68
8.865,0.58,-1.38,0.84,1.71
8.875,-0.29,0.52,-1.41,1.53
8.885,-0.27,-0.80,1.11,1.40
8.895,0.90,1.09,0.96,1.71
8.905,1.53,1.23,-0.82,2.13
8.916,0.84,0.11,-0.64,1.06
8.926,-0.14,1.26,-0.16,1.27
8.936,-1.58,-1.36,0.68,2.19
8.946,-1.86,-0.24,-1.27,2.27
8.956,-0.99,0.27,1.23,1.60
8.966,0.60,-0.03,-1.14,1.29
8.976,-0.44,0.06,-0.14,0.47
8.986,1.02,-0.01,0.52,1.15
8.996,0.61,-0.02,-0.62,0.87
9.006,-0.14,-0.75,0.72,1.04
9.016,-1.15,-0.70,0.19,1.36
9.026,1.12,0.53,0.24,1.26
9.037,1.62,0.80,-0.36,1.85
9.047,1.15,1.37,-0.77,1.94
9.057,-0.40,-0.16,0.36,0.57
9.067,-0.92,0.76,-0.28,1.22
9.077,-2.32,-0.79,1.15,2.71
9.087,-0.21,0.54,-2.63,2.69
9.097,-1.36,-1.76,1.27,2.56
9.107,0.14,0.90,-1.04,1.38
9.117,0.76,-1.27,1.18,1.89
9.127,0.73,0.14,0.64,0.98
9.137,-0.45,-1.23,-1.60,2.07
9.147,-0.53,-0.35,0.94,1.13
9.158,1.60,2.24,-0.90,2.90
9.168,0.14,-0.82,1.64,1.84
9.178,1.86,2.66,-1.65,3.64
9.188,0.17,0.10,1.00,1.02
9.198,-1.52,-0.46,-1.06,1.90
9.208,-1.96,-1.59,0.70,2.62
9.218,-0.19,1.01,-0.77,1.28
9.228,-1.11,-1.55,0.01,1.91
9.238,-0.20,0.19,-0.21,0.35
9.248,0.77,0.48,0.08,0.91
9.258,0.30,-0.01,-0.55,0.63
9.269,0.32,-0.32,0.93,1.03
9.279,0.17,-0.44,-0.56,0.74
9.289,1.10,-0.29,1.19,1.65
9.299,1.47,1.38,-0.77,2.16
9.309,-0.09,-0.71,0.34,0.79
9.319,-0.62,1.35,-0.24,1.51
9.329,-1.28,0.27,-0.28,1.34
9.339,-2.24,0.00,-0.82,2.38
9.349,-0.59,0.18,0.09,0.62
9.359,0.89,-0.11,0.06,0.90
9.369,0.64,-0.58,0.01,0.87
9.379,-0.03,-1.74,0.64,1.85
9.389,-0.13,1.23,-0.98,1.58
9.400,-0.03,-1.19,0.82,1.45
9.410,-0.10,0.69,-1.20,1.39
9.420,0.95,0.26,2.00,2.23
9.430,1.96,1.17,-0.83,2.43
9.440,0.27,0.64,-1.10,1.30
9.450,-0.77,-0.16,1.43,1.63
9.460,-1.87,-0.13,-1.16,2.21
9.470,-2.19,0.07,-0.01,2.19
9.480,-0.20,0.71,-0.34,0.81
9.490,0.53,-0.93,-0.20,1.08
9.500,0.81,0.28,0.23,0.89
9.511,0.48,-0.84,0.40,1.05
9.521,-0.09,-0.61,-0.30,0.68
9.531,-0.97,-0.50,0.20,1.11
9.541,0.17,-0.22,-0.45,0.53
9.551,1.10,1.37,0.91,1.98
9.561,1.71,1.28,-0.19,2.15
9.571,0.51,0.36,-1.06,1.23
9.581,-0.23,0.52,0.93,1.08
9.591,-1.79,-0.83,-0.69,2.09
9.601,-2.24,-0.98,0.39,2.47
9.611,0.03,0.72,-0.96,1.20
9.621,-0.34,-0.97,0.16,1.04
9.631,1.11,0.91,0.33,1.48
9.642,0.78,-0.14,-0.35,0.87
9.652,-0.23,-0.24,-0.26,0.42
9.662,-0.68,-1.01,0.60,1.36
9.672,-0.20,-0.71,-0.55,0.92
9.682,0.39,0.10,1.04,1.11
9.692,1.67,1.61,0.57,2.39
9.702,1.45,1.02,-1.88,2.59
9.712,-0.45,-0.11,0.81,0.93
9.722,-1.76,1.80,-0.67,2.61
9.732,-2.33,-1.64,-0.03,2.85
9.743,-0.98,0.09,0.14,0.99
9.753,0.48,-0.40,-1.00,1.18
9.763,0.79,-1.24,1.33,1.98
9.773,1.00,1.02,-0.82,1.65
9.783,-0.16,-2.24,0.56,2.31
9.793,-0.48,0.66,-0.53,0.97
9.803,-0.45,-0.46,0.40,0.76
9.813,0.64,0.25,0.18,0.71
9.823,1.71,2.06,-0.12,2.68
9.833,0.40,-0.12,-0.81,0.91
9.843,0.62,1.36,0.60,1.61
9.853,-1.87,0.70,0.48,2.05
9.864,-2.28,-1.14,-1.59,3.00
9.874,-0.65,-0.65,-0.15,0.93
9.884,0.03,-0.03,0.14,0.14
9.894,0.27,-1.79,0.49,1.88
9.904,0.68,0.62,0.26,0.95
9.914,0.86,-0.78,-0.05,1.16
9.924,-0.51,0.26,-1.40,1.52
9.934,-0.32,-0.24,1.67,1.72
9.944,1.67,1.22,-0.28,2.09
9.954,0.34,0.53,-0.32,0.71
9.964,0.75,0.76,0.09,1.07
9.974,-0.03,0.68,-0.08,0.68
9.985,-2.34,0.13,-0.42,2.38
9.995,-1.91,-0.79,0.27,2.08
10.005,0.35,0.51,-1.30,1.44
10.015,0.21,-1.15,0.59,1.31
10.025,0.63,-0.82,0.49,1.14
10.035,-0.32,-0.46,0.14,0.58
10.045,0.17,0.27,-0.33,0.46
10.055,-0.45,-0.59,-0.60,0.96
10.065,0.78,0.93,0.55,1.33
10.075,2.10,0.90,0.30,2.31
10.085,1.17,0.68,-0.33,1.39
10.095,-0.59,0.62,0.44,0.97
10.106,-1.43,0.09,-0.54,1.53
10.116,-1.19,-0.30,0.00,1.22
10.126,-1.88,-0.04,-1.03,2.15
10.136,-0.20,-0.95,-0.13,0.98
10.146,1.12,0.20,0.61,1.30
10.156,0.10,-0.69,0.27,0.74
10.166,-0.23,-0.69,-0.57,0.92
10.176,-0.14,-0.28,0.03,0.31
10.186,0.79,0.47,0.26,0.95
10.196,0.63,0.80,0.22,1.04
10.206,1.40,0.73,0.11,1.58
10.217,0.71,1.24,-0.81,1.64
10.227,-0.48,0.06,0.53,0.72
10.237,-0.84,-0.52,-0.37,1.06
10.247,-1.73,-0.89,0.25,1.96
10.257,-1.48,0.40,-0.66,1.67
10.267,0.18,-0.20,-0.66,0.71
10.277,0.36,0.23,0.47,0.64
10.287,0.77,0.23,0.28,0.85
10.297,0.29,-1.34,0.43,1.43
10.307,-0.42,0.41,-0.70,0.91
10.317,0.05,-1.23,-0.22,1.25
10.327,0.30,0.11,1.07,1.11
10.337,1.86,1.95,-0.47,2.74
10.348,0.44,-0.21,-0.03,0.49
10.358,0.31,1.55,0.15,1.59
10.368,-1.76,-0.31,-0.90,2.00
10.378,-2.28,-0.84,-0.09,2.43
10.388,-0.66,0.67,-0.30,0.99
10.398,-0.09,-1.11,0.24,1.14
10.408,0.77,1.12,-0.10,1.37
10.418,0.47,-1.40,-0.04,1.47
10.428,0.53,-0.33,-0.05,0.62
10.438,-0.01,-0.46,0.08,0.47
10.448,-1.19,-0.93,0.43,1.57
10.458,0.79,1.11,0.32,1.40
10.469,1.41,0.92,-0.06,1.68
10.479,1.45,1.19,-1.38,2.33
10.489,-0.33,0.35,1.15,1.25
10.499,-0.59,0.61,-0.38,0.93
10.509,-2.58,-1.06,0.21,2.80
10.519,-1.47,0.12,-1.39,2.02
10.529,0.17,-0.22,0.25,0.38
10.539,0.39,-0.93,-0.05,1.01
10.549,0.60,-0.36,0.31,0.77
10.559,0.40,-0.36,0.39,0.66
10.569,-0.17,-0.56,-0.87,1.05
10.580,-0.54,0.01,1.08,1.21
10.590,1.85,1.93,-0.78,2.79
10.600,0.95,-0.69,1.00,1.54
10.610,0.82,2.49,-1.60,3.07
10.620,-1.07,-0.82,0.92,1.63
10.630,-0.72,0.38,-0.27,0.86
10.640,-1.69,-0.34,0.17,1.73
10.650,-1.29,-0.92,-1.16,1.97
10.660,0.48,-0.28,-0.09,0.56
10.670,0.28,-0.54,0.65,0.89
10.680,-0.32,-0.72,-0.32,0.85
10.690,0.06,0.36,0.66,0.76
10.701,0.86,0.42,-1.02,1.40
10.711,0.15,0.17,0.49,0.54
10.721,1.66,1.19,0.87,2.22
10.731,1.29,0.39,-1.02,1.69
10.741,-0.40,0.22,0.87,0.98
10.751,-0.31,0.58,-1.23,1.39
10.761,-2.20,-1.88,0.65,2.96
10.771,-1.33,1.37,-0.62,2.01
10.781,-1.20,-1.28,-0.38,1.79
10.791,0.88,0.54,-0.10,1.04
10.802,0.27,-0.16,0.14,0.34
10.811,0.48,-1.02,0.18,1.14
10.822,0.18,0.51,0.47,0.71
10.832,-0.42,-0.56,-0.61,0.93
10.842,0.19,0.08,-0.08,0.23
10.852,1.54,0.81,0.96,1.99
10.862,1.15,-0.02,-0.31,1.19
10.872,0.29,1.46,-0.79,1.69
10.882,-1.02,-0.94,0.60,1.52
10.892,-1.89,-0.26,-0.62,2.01
10.902,-1.05,0.35,0.12,1.11
10.912,-0.25,0.06,-0.79,0.83
10.922,0.07,0.08,0.24,0.27
10.933,0.73,0.10,0.07,0.74
10.943,0.12,-0.20,-0.19,0.30
10.953,-0.49,-0.78,0.11,0.93
10.963,0.22,-0.42,-0.07,0.48
10.973,0.54,0.66,1.05,1.36
10.983,1.58,0.91,-0.80,1.99
10.993,0.87,0.11,-0.38,0.95
11.003,0.14,1.29,0.22,1.31
11.013,-1.12,-0.92,0.26,1.47
11.023,-1.52,0.04,-0.39,1.57
11.033,-1.66,-0.98,-0.29,1.95
11.043,-0.48,0.41,-0.73,0.97
11.054,0.29,-0.12,0.08,0.32
11.064,0.45,-0.03,0.56,0.72
11.074,0.77,-0.31,-0.21,0.85
11.084,-0.34,-0.53,-0.12,0.64
11.094,-0.18,-0.50,-0.19,0.56
11.104,0.13,-0.51,0.89,1.04
11.114,1.27,1.61,-0.29,2.07
11.124,1.28,0.63,0.23,1.44
11.134,0.54,1.16,-0.69,1.46
11.144,-0.43,-0.31,-0.52,0.74
11.155,-1.94,-0.90,0.83,2.30
11.164,-1.31,0.29,-0.53,1.44
11.175,-1.40,-0.80,-0.04,1.62
11.185,0.15,0.51,-0.81,0.97
11.195,0.16,-0.62,0.44,0.78
11.205,1.29,0.67,-0.15,1.47
11.215,0.17,-1.49,0.50,1.58
11.225,0.13,0.95,-0.10,0.97
11.235,0.76,-0.37,0.41,0.94
11.245,0.61,0.62,-0.92,1.27
11.255,0.48,1.09,0.76,1.41
11.265,-0.26,0.83,-0.65,1.08
11.276,-0.64,-0.45,0.28,0.84
11.286,-0.77,-0.71,-0.01,1.05
11.296,-0.64,0.02,-1.03,1.21
11.306,-1.21,-1.14,0.89,1.89
11.316,-0.40,0.13,-1.85,1.90
11.326,-0.24,-0.67,1.97,2.09
11.336,1.32,1.87,-0.97,2.49
11.346,0.10,-1.86,0.38,1.90
11.356,0.39,0.62,-0.25,0.77
11.366,0.92,0.49,0.13,1.05
11.376,1.04,-0.78,1.04,1.66
11.386,0.11,1.89,-1.68,2.53
11.397,-0.51,-0.78,1.17,1.50
11.407,-0.82,1.27,-0.77,1.69
11.417,-1.67,-0.49,0.48,1.81
11.427,-1.43,-0.07,-1.68,2.20
11.437,0.87,0.63,0.28,1.11
11.447,0.49,-0.73,0.79,1.18
11.457,0.29,-0.75,-0.51,0.95
11.467,-0.12,-0.62,1.06,1.23
11.477,0.08,0.36,-1.24,1.29
11.487,-0.45,-0.49,0.35,0.75
11.498,1.00,0.95,0.31,1.41
11.508,1.59,0.36,0.12,1.63
11.517,0.68,1.16,-0.61,1.48
11.527,-0.44,-0.17,0.53,0.71
11.538,-1.61,-0.12,-0.90,1.85
11.548,-1.93,0.04,0.73,2.07
11.558,-0.84,0.91,-1.20,1.72
11.568,0.20,-0.84,0.03,0.87
11.578,0.95,0.29,0.27,1.03
11.588,0.69,-0.59,-0.12,0.91
11.598,-0.41,-0.72,0.69,1.08
11.608,-0.42,-0.51,-0.90,1.11
11.618,-0.54,-0.95,0.15,1.11
11.628,1.75,1.56,0.58,2.42
11.638,1.71,0.45,0.61,1.87
11.649,0.41,1.55,-1.55,2.23
11.659,-0.54,0.21,1.12,1.26
11.669,-1.97,0.35,-1.55,2.53
11.679,-2.29,-1.02,1.34,2.84
11.689,0.29,0.44,-1.18,1.29
11.699,-0.15,-1.64,0.09,1.65
11.709,1.27,0.96,-0.29,1.62
11.719,0.51,-0.86,1.14,1.52
11.729,-0.64,0.13,-1.13,1.31
11.739,-0.94,-1.16,0.00,1.49
11.749,0.34,0.12,0.05,0.36
11.760,0.25,-0.26,1.08,1.14
11.770,1.86,0.97,-0.25,2.11
11.780,1.30,0.89,-0.72,1.73
11.790,-0.14,0.71,-0.12,0.73
11.800,-0.89,0.38,0.18,0.98
11.810,-2.91,-0.25,-0.11,2.93
11.820,-0.91,0.20,-1.18,1.50
11.830,-0.01,-0.79,0.19,0.81
11.840,0.52,-0.25,0.04,0.58
11.850,1.00,-0.62,0.78,1.42
11.860,-0.61,-0.55,-0.23,0.85
11.870,0.89,0.09,-0.63,1.10
11.881,-0.46,-1.41,0.86,1.71
11.891,0.73,1.10,-0.56,1.43
11.901,1.05,0.29,1.85,2.15
11.911,1.13,2.72,-2.51,3.87
11.921,-0.98,-0.92,1.30,1.87
11.931,-0.87,1.78,-1.11,2.28
11.941,-2.01,-0.75,-0.60,2.23
11.951,-0.54,-1.19,1.06,1.68
11.961,-0.05,-0.12,-0.93,0.94
11.971,-0.13,-1.72,1.71,2.43
11.981,1.22,1.58,-1.40,2.43
11.991,-0.99,-2.04,-0.70,2.37
12.002,0.32,0.58,0.27,0.72
12.012,1.25,0.98,1.08,1.93
12.022,0.82,-0.67,0.16,1.07
12.032,1.53,2.13,0.05,2.62
12.042,-0.16,0.40,-0.85,0.95
12.052,-1.36,-0.52,-0.57,1.56
12.062,-1.47,1.13,1.10,2.15
12.072,-1.85,-0.01,-1.40,2.32
12.082,-0.07,-1.56,0.41,1.61
12.092,0.94,1.08,-0.59,1.54
12.102,0.29,-1.88,0.66,2.02
12.113,0.07,0.18,0.17,0.26
12.123,-0.18,-0.51,-0.85,1.01
12.133,-0.44,-0.43,0.45,0.77
12.143,0.85,1.35,-0.10,1.60
12.153,1.11,-0.37,0.77,1.40
12.163,1.58,1.59,-0.93,2.43
12.173,-0.64,-0.25,0.66,0.95
12.183,-0.30,0.49,-0.79,0.98
12.193,-1.50,-0.34,0.84,1.75
12.203,-1.42,0.54,-1.49,2.13
12.213,-0.85,-0.92,0.05,1.25
12.224,0.78,1.07,-0.04,1.32
12.234,0.63,-0.61,0.19,0.89
12.244,0.24,-0.75,0.20,0.81
12.254,-0.32,-0.40,0.15,0.53
12.264,0.00,-0.63,-0.71,0.95
12.274,0.40,0.22,0.35,0.57
12.284,1.24,0.80,1.19,1.90
12.294,0.96,0.60,-0.84,1.41
12.304,0.39,0.88,-0.53,1.10
12.314,-0.77,0.21,-0.20,0.83
12.324,-2.15,-0.61,0.33,2.26
12.334,-1.54,0.17,-0.24,1.57
12.345,-0.00,-0.52,-0.55,0.76
12.354,0.22,0.17,-0.45,0.53
12.365,0.44,-0.22,0.58,0.76
12.375,0.62,-0.74,-0.14,0.97
12.385,-0.57,0.08,0.42,0.72
12.395,-0.08,-0.71,-1.11,1.32
12.405,-0.48,-0.27,1.46,1.56
12.415,1.48,1.70,-0.63,2.34
12.425,2.28,0.09,-0.08,2.28
12.435,0.65,0.52,0.70,1.09
12.445,-1.28,0.17,-0.94,1.59
12.456,-2.11,-0.66,0.16,2.22
12.465,-1.72,0.92,-0.71,2.08
12.476,-1.61,-0.19,-1.08,1.95
12.486,0.63,-0.20,0.95,1.16
12.496,1.15,0.65,-0.11,1.32
12.506,0.83,-1.68,0.63,1.98
12.516,-0.55,0.30,-0.28,0.69
12.526,0.23,-0.90,-0.33,0.99
12.536,0.10,-0.27,1.15,1.19
12.546,1.56,1.88,-2.04,3.18
12.556,0.52,-1.27,1.48,2.02
12.566,1.84,2.99,-1.19,3.71
12.576,-2.40,-1.15,1.56,3.09
12.586,-0.73,1.09,-1.42,1.94
12.596,-1.83,-1.33,0.61,2.35
12.607,-0.64,0.71,-2.63,2.80
12.617,-0.07,-2.12,1.98,2.90
12.627,1.70,1.17,-0.13,2.07
12.637,-0.43,-1.90,0.75,2.09
12.647,0.03,0.84,-0.32,0.90
12.657,1.02,0.18,-1.64,1.94
12.667,-0.68,-0.99,1.66,2.05
12.677,1.89,3.08,-0.41,3.64
12.687,-0.29,-1.21,0.22,1.26
12.697,1.11,1.55,-0.15,1.91
12.708,-0.72,0.18,-0.02,0.74
12.718,-2.29,-1.40,-0.64,2.76
12.728,-0.98,0.43,0.15,1.08
12.738,-0.36,-0.46,-0.84,1.03
12.748,-0.06,-0.21,0.62,0.65
12.758,0.38,-0.74,-0.30,0.88
12.768,0.47,-0.40,0.02,0.62
12.778,-0.18,0.41,0.07,0.45
12.788,-0.16,-0.41,-0.21,0.49
12.798,1.28,0.69,0.78,1.66
12.808,1.53,1.18,-0.30,1.96
12.818,0.30,0.37,-0.99,1.10
12.829,-0.42,0.17,0.71,0.84
12.839,-0.73,0.38,-0.26,0.86
12.849,-1.63,-0.92,0.46,1.93
12.859,-1.49,0.08,-1.29,1.97
12.869,-0.24,-0.47,-0.14,0.55
12.879,0.76,0.27,-0.02,0.81
12.889,0.62,-0.63,0.72,1.14
12.899,0.31,-0.10,0.06,0.33
12.909,-0.36,-0.29,-0.62,0.77
12.919,-0.12,0.16,-0.14,0.24
12.929,1.34,0.50,1.11,1.81
12.940,1.30,0.22,-0.33,1.36
12.950,0.37,1.01,-0.53,1.20
12.960,-0.91,-0.11,-0.01,0.91
12.970,-1.16,-0.26,-0.12,1.19
12.980,-1.61,-0.09,0.22,1.62
12.990,-1.39,-0.31,-0.75,1.61
13.000,0.63,0.56,-0.54,1.00
13.010,0.52,-0.57,0.80,1.11
13.020,0.42,-0.00,-0.61,0.74
13.030,0.01,-1.00,0.69,1.21
13.040,-0.32,0.23,-0.70,0.80
13.050,-0.41,-0.99,0.68,1.27
13.061,1.64,1.54,0.40,2.29
13.071,1.34,0.62,-0.72,1.65
13.081,0.54,0.36,-0.14,0.66
13.091,0.20,1.04,0.20,1.08
13.101,-2.11,-1.70,0.24,2.72
13.111,-2.11,0.54,-0.61,2.26
13.121,-1.03,-0.32,-1.01,1.48
13.131,0.58,0.46,0.05,0.74
13.141,0.30,0.20,0.30,0.48
13.151,0.73,-0.49,0.44,0.98
13.161,0.91,0.56,0.13,1.08
13.171,-0.64,-1.94,-0.78,2.18
13.181,-0.61,-0.10,1.14,1.30
13.192,1.90,1.56,-0.70,2.55
13.202,0.46,-0.62,0.45,0.89
13.212,0.94,2.66,-1.12,3.03
13.222,-0.75,-1.02,1.30,1.82
13.232,-0.96,0.25,-1.63,1.91
13.242,-1.20,-1.05,1.52,2.20
13.252,-0.66,-0.14,-1.59,1.72
13.262,-1.32,-0.92,0.21,1.62
13.272,0.29,1.37,0.13,1.41
13.282,0.74,-0.47,-0.85,1.22
13.292,0.41,0.11,1.12,1.19
13.303,0.32,-0.34,-0.59,0.75
13.313,0.59,-0.85,0.63,1.21
13.323,1.22,1.68,-0.25,2.09
13.333,0.09,-0.48,0.21,0.53
13.343,0.12,1.81,-0.86,2.01
13.353,-0.82,-0.12,0.69,1.08
13.363,-0.96,-0.80,-1.09,1.66
13.373,-0.27,0.11,0.90,0.95
13.383,-1.08,-0.19,-0.56,1.23
13.393,-0.91,-0.97,-0.98,1.65
13.403,0.40,0.32,1.27,1.37
13.413,0.91,0.46,-0.91,1.37
13.424,-0.15,-0.58,0.39,0.71
13.434,0.25,0.42,-0.27,0.55
13.444,0.41,-0.87,0.79,1.24
13.454,1.23,0.50,0.22,1.34
13.464,0.92,0.64,-1.08,1.55
13.474,-0.39,-0.17,0.15,0.45
13.484,-0.56,1.23,0.11,1.35
13.494,-0.98,-0.21,0.28,1.04
13.504,-1.39,0.35,-0.37,1.48
13.514,-0.18,-0.15,-1.05,1.08
13.524,-0.24,-0.83,0.18,0.89
13.534,0.53,-0.35,0.36,0.73
13.545,0.49,-0.81,0.81,1.25
13.555,-0.17,0.34,-1.06,1.12
13.565,-0.55,-0.51,0.05,0.75
13.575,0.65,0.62,-0.06,0.90
13.585,1.79,0.43,1.10,2.14
13.595,1.24,1.01,-0.78,1.78
13.605,-0.44,0.04,0.15,0.46
13.615,-1.46,0.31,-0.40,1.54
13.625,-1.73,-1.03,-0.07,2.02
13.635,-1.48,1.22,-0.45,1.97
13.646,0.78,-0.31,-0.30,0.89
13.656,0.40,-0.15,0.45,0.62
13.666,0.42,0.13,-0.70,0.83
13.676,-0.25,-0.99,1.09,1.49
13.686,-0.46,0.09,-0.93,1.04
13.696,-0.53,-1.62,0.21,1.72
13.706,0.92,0.74,-0.12,1.19
13.716,1.42,0.49,0.93,1.77
13.726,1.38,1.44,-1.08,2.27
13.736,0.14,0.04,0.68,0.70
13.746,-0.63,1.15,-0.75,1.51
13.756,-2.47,-0.98,0.32,2.68
13.766,-1.85,0.29,-0.52,1.94
13.777,0.58,-0.20,-1.03,1.20
13.787,0.42,-0.96,1.14,1.55
13.797,0.44,0.45,-0.91,1.11
13.807,-0.01,-1.46,1.43,2.04
13.817,0.27,0.45,-1.49,1.57
13.827,-1.03,-1.66,0.23,1.96
13.837,0.18,0.72,0.18,0.77
13.847,2.03,0.84,1.03,2.42
13.857,1.37,1.73,-0.58,2.28
13.867,0.31,0.64,-1.03,1.25
13.877,-0.93,-0.01,0.28,0.97
13.887,-1.67,0.24,-0.07,1.69
13.898,-2.17,-1.70,0.12,2.76
13.908,-0.23,0.27,-0.88,0.95
13.918,0.66,0.02,0.73,0.99
13.928,0.77,-0.48,-0.94,1.30
13.938,-0.25,-0.25,0.87,0.94
13.948,0.47,-0.30,-0.57,0.80
13.958,-0.15,-1.09,0.18,1.12
13.968,-0.22,0.39,0.20,0.49
13.978,1.76,0.94,0.22,2.01
13.988,1.08,0.88,-0.40,1.45
13.998,-0.10,1.32,-0.11,1.33
14.009,-1.00,0.17,0.42,1.10
14.019,-2.84,-0.37,-0.54,2.91
14.029,-0.89,-0.38,-0.99,1.39
14.039,0.50,-1.18,-0.09,1.29
14.049,0.54,-0.01,1.12,1.24
14.059,0.52,-0.37,-0.17,0.66
14.069,-0.36,0.24,-0.13,0.46
14.079,-0.22,0.08,-1.03,1.05
14.089,-0.23,-0.69,0.39,0.82
14.099,1.69,1.48,1.23,2.56
14.109,1.22,0.18,-0.63,1.38
14.119,0.24,-0.12,0.02,0.27
14.130,0.00,1.14,-0.39,1.20
14.140,-1.53,-0.33,0.27,1.59
14.150,-2.22,0.18,-0.36,2.26
14.160,-0.18,-0.11,0.36,0.41
14.170,0.97,1.42,-1.14,2.06
14.180,-0.55,-1.84,-2.03,2.80
14.190,-1.38,-1.23,2.93,3.46
14.200,2.19,1.95,-1.47,3.28
14.210,-0.85,-2.71,2.29,3.65
14.220,1.04,1.51,-1.56,2.41
14.231,0.57,-0.69,0.20,0.92
14.240,1.25,1.65,-0.40,2.10
14.251,0.26,0.42,0.12,0.51
14.261,-0.70,-0.17,0.76,1.05
14.271,-1.06,0.80,-1.01,1.67
14.281,-1.49,-0.94,0.21,1.77
14.291,-0.90,0.52,-1.04,1.47
14.301,-0.01,-1.21,0.23,1.23
14.311,0.23,0.02,0.34,0.41
14.321,0.95,0.12,0.11,0.97
14.331,-0.49,-0.95,-0.03,1.07
14.341,-0.04,0.24,-0.92,0.95
14.351,-0.18,-0.33,0.89,0.97
14.361,2.02,1.21,0.39,2.39
14.372,1.10,0.25,-0.44,1.21
14.382,0.79,0.81,-0.34,1.18
14.392,-0.48,0.26,0.24,0.59
14.402,-2.01,-0.87,-0.30,2.21
14.412,-2.50,-0.43,0.30,2.55
14.422,-0.19,0.61,-1.46,1.59
14.432,0.06,-0.51,0.52,0.73
14.442,1.10,0.67,-0.08,1.29
14.452,0.45,-0.99,0.35,1.14
14.462,0.15,-0.09,0.26,0.32
14.472,-0.80,-0.89,-0.82,1.45
14.482,-0.78,-0.53,-0.29,0.99
14.493,1.80,1.19,1.30,2.52
14.503,1.80,0.67,-0.04,1.92
14.513,0.54,1.04,-1.35,1.79
14.523,-0.27,0.29,1.60,1.65
14.533,-1.22,0.84,-1.36,2.01
14.543,-2.91,-1.18,0.38,3.17
14.553,-1.16,-0.30,-1.33,1.79
14.563,0.98,-0.04,0.75,1.24
14.573,0.63,-0.64,0.10,0.90
14.583,0.22,-0.51,-0.22,0.59
14.593,0.29,-0.40,0.10,0.50
14.604,0.13,0.08,-0.58,0.60
14.614,0.15,0.47,1.07,1.18
14.624,1.19,1.41,-0.20,1.85
14.634,1.00,0.40,-0.21,1.10
14.644,0.09,1.63,-0.63,1.75
14.654,-0.80,-0.42,0.61,1.09
14.664,-1.85,-0.48,-0.44,1.97
14.674,-1.53,-0.55,-0.24,1.64
14.684,-0.08,-0.82,-0.63,1.04
14.694,-0.13,-0.23,0.76,0.80
14.704,0.89,-0.21,0.02,0.91
14.714,0.14,-0.29,-0.05,0.33
14.725,-0.01,0.35,-0.96,1.02
14.735,-0.03,-0.72,0.38,0.81
14.745,0.81,1.19,0.89,1.69
14.755,0.95,0.29,-0.22,1.01
14.765,0.59,0.13,-0.47,0.77
14.775,0.98,1.15,-0.07,1.51
14.785,-1.01,-0.99,0.34,1.46
14.795,-1.28,0.43,-0.68,1.51
14.805,-2.22,-0.94,0.97,2.60
14.815,-0.02,1.37,-2.65,2.99
14.825,-0.50,-1.71,1.14,2.12
14.836,-0.02,0.62,0.42,0.75
14.846,2.25,0.41,-0.89,2.45
14.856,-0.05,-1.23,1.73,2.12
14.866,0.45,1.28,-1.91,2.35
14.876,-0.62,-1.68,1.08,2.09
14.886,0.85,1.56,0.62,1.88
14.896,1.06,0.02,-1.08,1.51
14.906,-0.38,-0.79,0.17,0.89
14.916,0.28,1.50,-0.08,1.53
14.926,-2.22,-0.92,0.43,2.44
14.936,-1.37,0.30,-0.39,1.45
14.946,-1.20,-1.11,-1.00,1.91
14.957,1.56,0.53,-0.19,1.65
14.967,0.37,-1.02,0.79,1.34
14.977,-0.56,0.00,-0.30,0.64
14.987,0.06,1.04,-0.54,1.17
14.997,0.27,0.07,0.41,0.49
15.007,1.28,1.28,0.32,1.84
15.017,1.22,-0.21,0.16,1.25
15.027,0.99,0.06,-0.63,1.17
15.037,-0.78,-0.78,0.74,1.33
15.047,-1.48,-0.43,-0.54,1.64
15.057,-1.75,-0.67,0.23,1.89
15.067,-1.13,1.02,-0.87,1.76
15.078,0.06,0.57,-0.44,0.72
15.088,0.75,-0.19,-0.02,0.77
15.098,0.66,0.30,0.82,1.09
15.108,0.44,-0.35,-0.61,0.83
15.118,-1.29,-1.19,0.13,1.76
15.128,0.09,0.25,-0.51,0.58
15.138,1.23,0.28,2.41,2.72
15.148,2.15,2.06,-2.35,3.79
15.158,-0.38,-1.58,0.37,1.67
15.168,0.98,2.16,0.00,2.37
15.178,-1.87,-1.39,0.52,2.39
15.189,-1.87,-0.85,-0.95,2.27
15.198,-1.97,0.23,0.74,2.12
15.209,0.66,1.25,-2.16,2.58
15.219,-0.19,-1.24,0.94,1.57
15.229,1.23,1.51,-0.13,1.95
15.239,0.92,-1.46,0.84,1.92
15.249,-0.45,0.13,-0.67,0.81
15.259,-0.58,-1.37,0.23,1.51
15.269,1.31,0.83,0.20,1.56
15.279,1.43,1.23,-0.46,1.94
15.289,-0.34,0.24,0.50,0.65
15.299,0.37,1.28,-0.67,1.49
15.310,-1.55,-1.02,0.83,2.03
15.320,-0.74,0.40,-2.09,2.26
15.330,-2.10,-1.72,1.18,2.96
15.340,0.20,1.15,-0.80,1.41
15.350,0.44,-1.25,1.09,1.72
15.360,0.63,0.82,-0.47,1.14
15.370,0.14,-0.58,-0.59,0.84
15.380,-0.21,-0.18,-0.22,0.35
15.390,0.14,0.25,0.13,0.32
15.400,1.11,0.19,1.65,2.00
15.410,1.41,1.21,-1.22,2.22
15.420,0.10,-0.22,0.33,0.42
15.431,0.52,1.58,-1.11,2.00
15.441,-1.96,-2.22,1.51,3.33
15.451,-1.13,1.13,-1.63,2.28
15.461,-1.22,-0.79,0.73,1.63
15.471,-0.45,0.32,-0.93,1.08
15.481,0.18,-0.62,0.42,0.77
15.491,1.17,0.32,0.38,1.27
15.501,0.26,0.12,-0.83,0.88
15.511,-0.61,-1.00,0.16,1.18
15.521,0.41,0.40,-0.30,0.65
15.531,0.76,-0.31,1.52,1.73
15.541,1.40,0.92,-0.74,1.83
15.551,-0.03,-0.17,-0.35,0.39
15.562,-0.25,1.04,0.17,1.09
15.572,-1.25,0.34,-0.38,1.35
15.582,-2.00,-0.25,0.18,2.03
15.592,-0.31,0.24,-1.19,1.25
15.602,0.03,-0.89,0.17,0.91
15.612,0.67,0.07,0.36,0.77
15.622,0.22,-1.33,0.32,1.38
15.632,-0.16,0.07,-0.11,0.21
15.642,-0.10,-0.01,-0.30,0.32
15.653,0.14,-0.08,-0.29,0.33
15.663,1.17,0.53,0.89,1.56
15.673,1.71,0.81,-0.21,1.90
15.683,0.47,0.46,-0.41,0.78
15.693,-0.86,0.07,0.04,0.86
15.703,-1.94,-0.63,-0.16,2.05
15.713,-1.68,0.24,-0.31,1.73
15.723,-0.37,0.31,-0.21,0.53
15.733,0.50,-0.27,-0.66,0.87
15.743,0.38,-0.25,0.74,0.87
15.753,1.02,-0.04,-0.26,1.05
15.763,-0.60,-1.15,0.19,1.31
15.773,-1.04,-0.17,-0.57,1.19
15.783,0.51,-0.03,0.42,0.66
15.794,1.67,1.48,0.52,2.29
15.804,1.10,0.79,-0.30,1.39
15.814,0.88,0.70,-1.29,1.71
15.824,-0.75,0.17,1.08,1.33
15.834,-2.09,0.73,-2.09,3.04
15.844,-2.60,-1.46,2.65,3.99
15.854,0.76,2.40,-2.46,3.52
15.864,-0.40,-1.85,0.93,2.11
15.874,0.96,-0.83,0.31,1.30
15.884,0.14,-0.63,0.14,0.66
15.895,0.34,-0.58,-0.32,0.74
15.905,-0.50,-0.79,-0.51,1.07
15.915,-0.13,0.54,0.61,0.83
15.925,1.66,0.10,0.94,1.91
15.935,1.22,2.00,-1.17,2.61
15.945,0.00,0.77,0.23,0.81
15.955,-0.62,0.18,-0.39,0.76
15.965,-1.96,0.82,0.48,2.18
15.975,-1.62,-1.34,-0.74,2.23
15.985,0.33,-0.58,-0.81,1.05
15.995,0.44,-0.23,0.89,1.01
16.005,0.87,-1.19,-0.17,1.49
16.015,-0.74,0.29,0.83,1.14
16.026,0.32,-0.37,-0.96,1.08
16.036,-0.20,-0.62,-0.38,0.76
16.046,-0.10,1.04,-0.04,1.04
16.056,1.16,0.26,1.54,1.94
16.066,1.89,2.21,-1.11,3.11
16.076,0.33,-0.40,0.44,0.68
16.086,-0.10,1.45,-0.70,1.62
16.096,-3.47,-1.67,0.73,3.92
16.106,-0.72,0.30,-1.88,2.04
16.116,-1.21,-0.93,0.78,1.71
16.126,0.56,0.38,-0.42,0.80
16.136,1.07,-1.00,0.06,1.47
16.147,0.77,0.80,1.27,1.69
16.157,-0.14,-0.88,-1.25,1.54
16.167,-0.92,-0.77,-0.74,1.41
16.177,0.67,0.22,1.52,1.68
16.187,1.01,0.53,0.43,1.22
16.197,0.14,0.41,-0.68,0.81
16.207,0.75,0.76,-0.41,1.15
16.217,0.23,0.84,-0.29,0.92
16.227,-1.94,0.30,0.64,2.06
16.237,-2.07,0.21,-0.89,2.26
16.247,-0.57,-0.81,-0.65,1.18
16.258,0.54,0.17,0.17,0.60
16.268,0.18,-1.47,0.40,1.53
16.278,0.41,-0.06,0.22,0.47
16.288,0.66,-0.34,0.15,0.76
16.298,0.22,-0.19,-1.03,1.07
16.308,-0.10,-0.01,0.69,0.70
16.318,1.16,0.83,0.41,1.49
16.328,0.89,0.19,-0.43,1.00
16.338,0.29,1.07,0.20,1.13
16.348,-0.90,-0.57,-0.56,1.20
16.358,-2.77,-0.31,0.40,2.82
16.368,-0.14,1.48,-1.20,1.91
16.378,0.26,-1.56,-0.52,1.66
16.389,0.76,0.75,0.90,1.40
16.399,-1.01,-0.41,0.14,1.10
16.409,-0.14,-0.60,-0.69,0.92
16.419,0.15,-0.47,0.63,0.80
16.429,0.81,0.02,-1.13,1.39
16.439,1.04,-0.12,1.89,2.16
16.449,1.49,1.45,-0.48,2.14
16.459,-0.29,-0.75,-0.54,0.96
16.469,0.44,1.99,-0.33,2.06
16.479,-1.19,-1.36,0.40,1.85
16.490,-2.00,-0.11,-0.74,2.14
16.500,-1.30,0.50,0.58,1.50
16.510,-0.47,-0.86,-0.63,1.16
16.520,0.24,0.68,-0.41,0.83
16.530,1.61,-0.74,0.31,1.80
16.540,0.37,-0.62,-0.01,0.73
16.550,-0.06,0.24,0.15,0.29
16.560,-0.44,-0.72,-0.24,0.88
16.570,0.85,0.71,0.72,1.32
16.580,1.15,1.06,-0.24,1.58
16.590,0.48,0.00,-0.78,0.92
16.600,0.10,1.18,0.07,1.19
16.611,-1.29,-0.60,0.84,1.65
16.621,-2.06,0.60,-0.98,2.35
16.631,-1.26,-0.87,-0.55,1.63
16.641,0.35,0.16,-0.32,0.50
16.651,0.58,-0.40,0.37,0.80
16.661,0.68,-0.58,0.78,1.19
16.671,0.58,0.34,-0.71,0.98
16.681,-0.69,-1.29,1.16,1.87
16.691,0.10,0.25,0.32,0.42
16.701,1.24,1.40,-2.30,2.96
16.711,0.80,-0.11,-0.95,1.25
16.721,1.15,1.76,2.04,2.93
16.732,-0.53,-0.04,0.73,0.90
16.743,-1.82,-0.58,-0.75,2.05
16.752,-1.73,0.49,-1.21,2.17
16.762,-1.11,-1.01,-0.71,1.66
16.772,0.11,0.49,0.74,0.90
16.782,0.87,-0.53,0.90,1.36
16.792,1.15,-0.18,-0.51,1.27
16.802,0.09,-0.33,0.39,0.52
16.812,-0.62,-0.22,-1.45,1.59
16.822,-0.37,-0.41,0.32,0.64
16.832,0.68,0.52,1.80,1.99
16.842,1.41,1.13,-0.80,1.98
16.853,0.50,-0.04,-0.80,0.94
16.863,0.35,0.88,-0.15,0.96
16.873,-1.43,-0.18,0.55,1.54
16.883,-1.89,-0.29,0.09,1.91
16.893,-1.24,-0.48,-0.95,1.63
16.903,0.13,-0.01,-0.81,0.82
16.913,0.24,-0.81,0.62,1.05
16.923,0.51,-0.14,0.09,0.54
16.933,0.30,-0.17,0.88,0.94
16.944,0.22,0.42,-0.99,1.10
16.953,-0.29,-0.77,0.18,0.84
16.964,1.63,1.26,0.37,2.09
16.974,1.08,0.16,-0.25,1.12
16.984,0.18,0.50,0.28,0.60
16.994,-0.36,0.33,-0.20,0.53
17.004,-1.84,-0.65,-0.64,2.06
17.014,-1.57,0.84,0.26,1.80
17.024,-1.14,-0.92,-1.18,1.88
17.034,0.62,0.11,0.64,0.90
17.044,0.72,-0.02,0.27,0.77
17.054,0.04,-0.91,-0.38,0.99
17.064,0.05,0.18,0.34,0.39
17.074,0.21,-0.12,-0.06,0.25
17.085,0.47,0.29,-0.17,0.58
17.095,1.22,0.45,0.93,1.60
17.105,1.03,0.81,-1.41,1.92
17.115,0.24,0.02,0.90,0.93
17.125,-0.79,0.14,-0.10,0.81
17.135,-2.24,-1.37,-0.43,2.66
17.145,-1.07,1.20,-0.35,1.64
17.155,-0.41,-0.73,-0.15,0.85
17.165,-0.23,-0.22,2.97,2.99
17.175,1.22,0.54,-3.00,3.28
17.185,0.41,-0.65,-2.95,3.05
17.196,-0.19,0.71,0.46,0.87
