time,ax,ay,az,atotal
0.000,-1.97,-1.22,-0.20,2.32
0.010,-0.17,0.27,-1.13,1.18
0.020,0.29,-0.95,0.57,1.15
0.030,-0.01,0.06,-0.37,0.38
0.040,0.20,0.37,0.68,0.80
0.050,0.78,0.66,-0.05,1.02
0.060,-0.49,-0.69,-0.50,0.98
0.071,1.33,0.40,0.41,1.45
0.081,1.91,0.83,0.07,2.09
0.091,0.27,0.07,0.25,0.38
0.101,-0.78,-0.06,-0.47,0.91
0.111,-1.00,-0.41,-0.07,1.08
0.121,-1.31,0.06,-0.35,1.36
0.131,-1.33,0.02,0.32,1.37
0.141,0.17,0.10,-0.58,0.61
0.151,0.02,0.18,-0.24,0.30
0.161,1.13,0.03,0.19,1.15
0.171,0.13,-0.34,-0.03,0.37
0.181,-0.04,-0.32,-0.01,0.32
0.192,-0.30,-0.84,0.02,0.89
0.202,0.66,0.43,0.63,1.01
0.212,1.24,0.35,0.08,1.29
0.222,1.69,1.44,-1.11,2.49
0.232,-0.29,0.13,0.93,0.98
0.242,-1.58,-0.18,-1.20,1.99
0.252,-1.85,-0.22,1.19,2.21
0.262,-0.77,0.78,-1.35,1.74
0.272,-0.35,-0.74,-0.35,0.89
0.282,1.03,0.12,0.91,1.38
0.292,0.52,-0.42,-0.37,0.76
0.302,0.01,-0.55,0.20,0.59
0.312,-0.40,-0.48,-0.18,0.65
0.323,0.09,0.12,-0.03,0.16
0.333,1.10,0.96,0.75,1.65
0.343,1.43,1.22,-0.44,1.93
0.353,0.77,0.48,-0.50,1.03
0.363,-0.27,0.70,0.63,0.98
0.373,-0.98,-0.81,-0.75,1.48
0.383,-2.37,-1.61,0.41,2.89
0.393,-0.98,0.35,-0.12,1.05
0.403,0.33,0.54,-1.09,1.26
0.413,-0.27,0.26,0.35,0.51
0.424,1.22,0.49,-0.25,1.34
0.434,0.88,-0.32,0.65,1.14
0.444,-0.46,-0.38,-0.44,0.74
0.454,-0.85,-2.01,0.61,2.26
0.464,1.20,0.52,0.14,1.32
0.474,1.16,0.87,0.51,1.53
0.484,1.07,1.96,-1.63,2.77
0.494,-0.16,0.40,0.88,0.98
0.504,-0.23,0.87,-1.32,1.60
0.514,-1.90,-1.94,1.38,3.05
0.524,-1.21,-0.14,-0.82,1.46
0.534,-1.07,-0.77,-0.12,1.32
0.545,0.69,-0.14,0.26,0.75
0.555,0.33,0.13,-0.81,0.88
0.565,0.65,0.18,0.75,1.01
0.575,0.22,-0.08,-0.54,0.59
0.585,0.24,0.52,-0.30,0.65
0.595,1.26,-0.48,1.71,2.17
0.605,0.78,1.44,-1.54,2.25
0.615,-0.10,-0.61,1.49,1.61
0.625,0.72,2.05,-0.78,2.31
0.635,-1.20,-1.86,-0.62,2.30
0.645,-1.45,-1.07,-0.06,1.81
0.656,-0.99,1.04,-0.15,1.45
0.666,-0.88,-0.91,0.49,1.35
0.676,0.76,1.30,-1.61,2.21
0.686,0.39,-0.09,1.39,1.44
0.696,0.78,0.92,-0.42,1.27
0.706,-0.21,-0.99,-0.36,1.07
0.716,-0.04,-1.37,0.84,1.61
0.726,1.84,0.24,0.87,2.05
0.736,1.04,0.51,-1.21,1.68
0.746,-0.31,0.72,-0.07,0.78
0.756,0.15,1.14,0.21,1.17
0.766,-0.92,-0.15,0.32,0.99
0.777,-1.57,-0.14,-0.58,1.68
0.787,-1.07,-0.78,-0.92,1.61
0.797,-0.55,0.12,-0.25,0.62
0.807,0.84,-0.20,1.45,1.68
0.817,0.94,-0.40,-1.05,1.46
0.827,-0.29,0.03,0.88,0.93
0.837,0.23,0.48,-0.73,0.90
0.847,-0.12,-0.16,-0.19,0.28
0.857,1.03,0.10,1.52,1.84
0.867,1.95,1.27,-1.50,2.77
0.877,-0.22,-0.36,0.70,0.82
0.887,-0.40,0.37,-0.47,0.72
0.897,-1.46,-0.99,0.26,1.78
0.908,-1.69,1.10,0.06,2.02
0.918,-0.39,0.05,-1.66,1.70
0.928,-0.22,0.14,0.85,0.89
0.938,1.24,0.84,-0.29,1.53
0.948,0.19,-1.52,0.74,1.70
0.958,-0.23,-0.50,-0.56,0.78
0.968,-0.38,-1.00,0.24,1.10
0.978,0.52,0.20,-0.41,0.69
0.988,0.97,0.54,1.61,1.96
0.998,1.69,1.67,-1.17,2.65
1.009,0.46,0.22,0.19,0.54
1.019,0.22,1.05,-0.32,1.12
1.029,-2.51,-1.71,-0.47,3.07
1.039,-2.68,-0.07,0.37,2.71
1.049,0.52,0.82,-0.18,0.99
1.059,0.49,-0.09,-0.69,0.85
1.069,0.28,-0.03,0.35,0.45
1.079,1.44,-0.28,0.30,1.49
1.089,-0.80,-0.59,-0.56,1.14
1.099,-1.12,-1.99,0.93,2.47
1.109,-0.10,0.87,-1.33,1.59
1.119,1.57,-0.02,2.31,2.80
1.130,1.94,2.23,-1.12,3.16
1.140,0.94,0.69,-1.23,1.70
1.150,-0.11,-0.16,1.64,1.65
1.160,-1.24,1.20,-0.84,1.92
1.170,-3.37,-2.34,-0.51,4.13
1.180,-0.94,0.77,-0.63,1.37
1.190,1.05,-0.40,0.82,1.39
1.200,1.40,0.11,-0.45,1.47
1.210,0.46,-1.01,0.45,1.19
1.220,-0.47,-0.88,-0.11,1.01
1.230,-0.25,0.18,-0.06,0.31
1.240,0.15,-0.52,0.16,0.56
1.251,1.12,0.70,0.45,1.40
1.261,1.18,1.12,-0.12,1.63
1.271,1.01,1.86,-0.89,2.29
1.281,-0.87,-0.34,0.54,1.08
1.291,-1.18,0.59,-0.39,1.38
1.301,-1.70,-0.63,-0.25,1.83
1.311,-1.10,-0.85,-0.57,1.50
1.321,0.18,-0.98,0.42,1.09
1.331,-0.28,0.87,0.92,1.30
1.341,-2.33,4.03,0.39,4.68
1.352,1.02,4.05,-2.18,4.71
1.361,3.02,3.13,-0.85,4.43
1.372,1.63,0.37,1.50,2.25
1.382,0.53,-2.77,0.91,2.96
1.392,0.72,-0.73,-0.22,1.05
1.402,-1.12,-0.42,1.12,1.64
1.412,-1.19,0.21,-1.34,1.81
1.422,-0.39,0.25,-1.24,1.32
1.432,-0.16,-0.49,0.71,0.87
1.442,0.49,-0.18,0.21,0.56
1.452,-0.15,-1.11,-0.15,1.13
1.462,0.06,-0.59,0.05,0.60
1.472,0.23,0.41,0.38,0.61
1.483,-0.56,-0.79,0.12,0.98
1.493,-0.81,0.59,-2.70,2.88
1.503,-0.07,-1.19,1.15,1.66
1.513,-0.05,-1.06,0.75,1.30
1.523,0.48,-0.63,-0.91,1.20
1.533,-0.45,-2.16,1.27,2.55
1.543,0.68,0.49,-1.67,1.87
1.553,0.41,-0.42,1.66,1.76
1.563,0.28,0.77,-1.88,2.05
1.573,-1.07,-0.65,0.67,1.42
1.583,0.07,1.22,-0.20,1.24
1.593,-0.20,-0.43,0.52,0.71
1.604,0.01,-1.05,-1.19,1.59
1.613,-0.00,-0.93,0.65,1.13
1.624,0.66,-0.92,-0.13,1.14
1.634,0.18,-1.09,-0.32,1.15
1.644,-0.29,-1.29,0.62,1.46
1.654,0.09,-0.70,-0.78,1.05
1.664,-0.01,-0.87,0.38,0.95
1.674,-0.16,-0.48,-0.95,1.07
1.684,-0.79,-1.61,0.86,1.99
1.694,0.93,-0.01,-1.09,1.43
1.704,0.46,-1.03,2.19,2.46
1.714,5.44,3.96,2.64,7.23
1.725,1.64,0.37,-5.98,6.21
1.735,-6.11,4.18,4.05,8.43
1.745,-1.29,4.70,-3.69,6.11
1.755,-1.70,-2.11,-0.22,2.72
1.765,-0.02,1.49,3.87,4.15
1.775,3.63,0.76,-3.83,5.33
1.785,0.96,-2.35,2.61,3.64
1.795,0.64,0.48,-0.55,0.98
1.805,-1.28,-3.27,-0.09,3.51
1.815,-1.33,1.04,0.66,1.81
1.825,-3.28,-0.94,-1.51,3.74
1.836,-0.62,0.84,-1.18,1.57
1.846,1.78,2.18,1.23,3.07
1.856,0.67,-0.50,-0.43,0.94
1.866,1.43,0.14,0.70,1.59
1.876,1.21,1.12,0.17,1.66
1.886,-0.59,-1.52,-0.84,1.84
1.896,-0.61,-0.14,0.65,0.90
1.906,0.92,0.28,-0.11,0.96
1.916,0.36,-0.02,-0.12,0.38
1.926,0.33,0.48,0.72,0.93
1.937,-0.97,-0.83,-0.88,1.55
1.946,-1.17,0.72,-0.47,1.45
1.957,-1.30,-0.05,0.04,1.30
1.967,-0.42,0.68,-1.24,1.48
1.977,0.44,-0.58,1.74,1.89
1.987,1.08,0.80,-0.57,1.46
1.997,0.06,-1.70,-0.52,1.78
2.007,0.26,-0.67,0.98,1.22
2.017,1.67,0.36,0.30,1.74
2.027,0.02,-0.39,0.16,0.42
2.037,0.30,2.14,-1.22,2.48
2.047,-0.47,0.06,1.27,1.36
2.057,0.52,1.87,-1.84,2.67
2.067,-1.49,-2.12,1.62,3.06
2.078,-0.16,1.15,-1.87,2.20
2.088,-1.39,-1.43,1.04,2.25
2.098,-0.43,0.49,-0.93,1.14
2.108,-0.34,-1.09,0.83,1.41
2.118,1.07,1.31,-0.38,1.73
2.128,1.08,-0.27,-0.33,1.17
2.138,-1.20,-0.61,0.29,1.37
2.148,0.95,-0.24,-0.17,0.99
2.158,1.32,0.50,0.87,1.66
2.168,0.95,1.05,-0.40,1.47
2.178,-0.13,-0.17,0.04,0.22
2.189,-0.23,0.91,-0.64,1.13
2.199,-1.61,-1.23,0.41,2.07
2.209,-1.24,0.47,-0.51,1.42
2.219,-0.66,-0.62,-0.36,0.97
2.229,-0.01,0.25,0.52,0.58
2.239,0.71,0.83,-1.10,1.55
2.249,-0.20,-1.77,1.22,2.16
2.259,0.71,1.49,-0.89,1.88
2.269,-0.25,-1.51,0.58,1.64
2.279,0.98,0.98,-0.11,1.39
2.289,1.80,0.21,1.22,2.19
2.299,0.62,0.91,2.94,3.14
2.310,-0.43,-0.25,-1.41,1.50
2.320,-0.81,2.06,0.22,2.22
2.330,-1.61,-0.04,-1.01,1.90
2.340,-1.21,0.97,-2.69,3.10
2.350,-0.26,-0.44,1.07,1.18
2.360,0.10,-1.11,-0.18,1.13
2.370,0.19,2.40,1.07,2.63
2.380,0.19,-0.09,-0.41,0.46
2.390,0.05,1.58,-1.74,2.35
2.400,0.42,0.86,0.70,1.18
2.410,0.97,0.75,0.67,1.40
2.421,1.25,0.50,-0.33,1.39
2.431,0.67,0.91,-0.62,1.29
2.441,-0.01,0.76,0.26,0.80
2.451,-1.08,0.42,-1.00,1.53
2.461,-1.68,0.78,0.80,2.02
2.471,-1.55,0.34,-1.08,1.92
2.481,-0.42,0.14,-0.89,0.99
2.491,0.97,-0.74,0.96,1.55
2.501,1.37,-0.19,-0.39,1.44
2.511,0.49,-0.49,1.10,1.30
2.521,-0.11,-0.56,-0.81,0.99
2.531,-0.79,-0.26,0.08,0.83
2.542,-0.08,-0.40,0.93,1.02
2.552,1.14,-0.06,-0.29,1.18
2.562,1.65,0.25,0.13,1.68
2.572,0.82,0.65,-0.33,1.10
2.582,-0.74,0.46,-0.01,0.87
2.592,-2.11,0.57,-0.32,2.21
2.602,-2.17,0.57,-0.31,2.27
2.612,-1.01,-0.16,-1.24,1.61
2.622,1.19,-0.17,0.54,1.32
2.632,1.72,-0.48,0.38,1.82
2.642,1.11,0.16,0.20,1.14
2.652,-0.35,-0.58,0.12,0.69
2.663,-1.13,0.02,-0.65,1.31
2.673,-0.31,-0.39,0.66,0.82
2.683,1.01,-0.24,0.73,1.27
2.693,1.85,0.16,-0.70,1.98
2.703,1.15,0.69,0.10,1.34
2.713,-0.71,0.39,-0.12,0.81
2.723,-2.31,0.38,-0.40,2.37
2.733,-2.41,0.26,-0.06,2.42
2.743,-0.75,-0.49,-1.47,1.72
2.753,1.30,-0.39,0.80,1.58
2.763,1.72,-0.58,0.36,1.84
2.773,1.05,0.56,0.25,1.22
2.783,-0.27,-0.40,-0.15,0.50
2.794,-1.39,0.26,-0.61,1.54
2.804,-0.37,-0.14,0.56,0.69
2.814,0.95,-0.25,0.71,1.22
2.824,2.00,0.07,-0.41,2.04
2.834,1.05,0.17,-0.30,1.11
2.844,-0.45,0.48,0.41,0.77
2.854,-2.57,0.61,-0.14,2.65
2.864,-1.75,0.13,-1.25,2.16
2.874,-0.94,-0.76,-0.37,1.26
2.884,1.32,-0.15,0.70,1.50
2.894,1.33,-0.42,0.24,1.41
2.905,1.01,0.45,0.37,1.17
2.915,-0.82,-0.08,-0.81,1.16
2.925,-0.99,0.32,-0.14,1.05
2.935,-0.25,-0.18,0.46,0.55
2.945,1.45,-0.08,0.84,1.68
2.955,1.76,-0.10,-0.83,1.94
2.965,0.96,0.06,-0.12,0.97
2.975,-0.69,0.60,0.93,1.30
2.985,-2.59,0.70,-0.82,2.81
2.995,-1.41,-0.24,-1.14,1.83
3.005,-0.93,-0.87,0.03,1.28
3.015,1.08,0.09,0.65,1.26
3.026,1.02,-0.62,0.29,1.23
3.036,0.94,0.46,-0.37,1.11
3.046,-0.42,0.02,-0.32,0.53
3.056,-0.62,0.17,0.01,0.65
3.066,0.28,-0.09,0.71,0.77
3.076,1.29,-0.12,0.29,1.33
3.086,1.18,-0.23,-0.72,1.40
3.096,0.38,0.14,0.15,0.43
3.106,-1.38,0.46,0.70,1.61
3.116,-2.09,0.31,-1.02,2.34
3.126,-1.11,-0.76,-1.22,1.81
3.137,-0.07,-0.53,0.79,0.95
3.147,0.99,-0.62,0.33,1.21
3.157,0.57,-0.56,0.17,0.82
3.167,0.19,-0.15,-0.12,0.27
3.177,-0.28,-0.54,-0.80,1.00
3.187,-0.02,-0.38,0.76,0.85
3.197,0.67,-0.78,0.74,1.26
3.207,0.93,-0.99,-0.73,1.54
3.217,0.04,-0.60,-0.61,0.86
3.227,-0.69,-0.44,0.00,0.82
3.237,-1.02,-0.91,0.24,1.38
3.247,-1.02,-0.18,0.53,1.16
3.258,0.36,-0.03,-1.59,1.63
3.268,-0.21,-0.07,-1.21,1.23
3.278,-0.42,4.44,-3.97,5.97
3.288,1.81,4.93,-0.44,5.27
3.298,1.01,3.23,-0.58,3.44
3.308,-1.65,2.36,0.97,3.04
3.318,1.23,3.91,-3.26,5.24
3.328,0.03,-9.91,12.08,15.63
3.338,-1.98,-0.75,-5.03,5.46
3.348,4.94,0.36,-2.29,5.46
3.358,-0.25,-2.31,9.51,9.79
3.369,-2.48,-2.74,-1.77,4.10
3.379,-0.91,1.68,-1.79,2.62
3.389,-0.25,-0.60,-4.44,4.48
3.399,0.41,-2.20,-2.18,3.12
3.409,-0.87,-1.30,4.49,4.75
3.419,-0.13,-1.83,0.21,1.85
3.429,-0.01,-0.79,1.02,1.29
3.439,0.03,-0.68,-0.29,0.74
3.449,0.89,0.14,-2.82,2.96
3.459,0.94,0.99,1.70,2.18
3.469,1.22,1.37,-0.42,1.89
3.479,-0.05,-0.17,0.67,0.69
3.490,0.38,2.00,0.49,2.10
3.500,-1.21,-0.79,-1.50,2.09
3.510,-1.88,-0.17,-0.16,1.90
3.520,-0.73,0.67,-0.56,1.14
3.530,-0.23,-1.54,0.35,1.60
3.540,0.65,0.15,0.91,1.12
3.550,0.88,-0.52,-0.45,1.12
3.560,0.08,-0.43,-0.26,0.50
3.570,0.28,0.70,-0.30,0.81
3.580,-0.05,-0.66,0.52,0.84
3.590,0.96,1.28,0.48,1.67
3.600,1.06,0.80,-0.53,1.42
3.611,0.37,0.28,-0.16,0.48
3.621,-1.19,-0.41,-0.10,1.26
3.631,-0.88,-0.22,0.15,0.92
3.641,-1.33,0.17,-0.05,1.34
3.651,-0.86,-0.15,-0.91,1.26
3.661,0.09,0.30,0.31,0.44
3.671,0.98,0.25,-0.62,1.18
3.681,0.30,-1.41,1.04,1.77
3.691,-0.17,-0.16,-0.78,0.81
3.701,-0.68,-1.43,0.22,1.59
3.711,0.69,0.53,0.68,1.11
3.722,1.74,1.07,0.16,2.04
3.731,1.20,0.80,-0.81,1.66
3.742,0.59,1.24,-0.09,1.38
3.752,-0.52,0.27,0.13,0.60
3.762,-1.86,-1.02,0.46,2.17
3.772,-1.69,-0.32,-0.96,1.97
3.782,-0.98,-0.35,0.05,1.04
3.792,0.16,-0.13,-0.97,0.99
3.802,0.89,-0.39,1.26,1.59
3.812,0.93,0.76,-0.30,1.24
3.822,-0.38,-1.17,-0.56,1.35
3.832,-0.77,0.02,0.85,1.15
3.843,1.72,1.59,-0.20,2.35
3.853,1.19,-0.51,0.36,1.34
3.863,0.89,1.44,-0.69,1.83
3.873,-0.08,-0.16,0.32,0.37
3.883,-0.65,-0.13,-0.34,0.74
3.893,-1.71,0.94,-0.37,1.99
3.903,-1.57,-1.36,0.33,2.11
3.913,-0.61,0.25,-0.77,1.02
3.923,-0.41,-0.06,0.38,0.56
3.933,1.58,-1.64,-0.61,2.36
3.944,0.66,0.22,1.13,1.33
3.954,0.12,0.17,-0.48,0.52
3.964,0.45,-0.55,0.22,0.74
3.974,0.62,2.01,0.24,2.11
3.984,0.39,-0.10,-0.69,0.80
3.994,1.15,1.29,0.32,1.76
4.004,-0.16,0.50,-0.25,0.58
4.014,-1.39,-1.17,0.30,1.84
4.024,-1.24,-0.15,-0.51,1.35
4.034,-1.37,-0.93,-0.18,1.66
4.044,0.17,0.74,-0.81,1.11
4.054,-0.23,-0.15,0.61,0.67
4.064,0.42,1.40,-1.12,1.84
4.075,0.61,-0.09,1.87,1.97
4.084,0.73,0.22,-1.53,1.71
4.095,0.03,-1.80,1.19,2.16
4.105,0.83,-0.83,0.78,1.41
4.115,1.06,0.23,-0.13,1.09
4.125,0.27,0.08,-0.88,0.92
4.135,-0.55,0.76,0.56,1.10
4.145,-0.55,1.13,-1.85,2.24
4.155,-1.33,-0.19,1.35,1.90
4.165,-0.72,2.74,-1.51,3.21
4.175,-0.98,-1.95,-0.09,2.18
4.185,1.47,0.47,0.83,1.75
4.196,1.24,-0.68,-0.37,1.46
4.206,-2.34,-2.90,1.33,3.96
4.216,-0.63,0.43,-1.96,2.11
4.226,2.48,-1.04,1.12,2.91
4.236,0.90,1.36,1.82,2.45
4.246,0.19,0.98,-3.48,3.62
4.256,1.22,1.24,1.70,2.43
4.266,0.29,2.35,-1.34,2.72
4.276,-2.66,-2.74,1.65,4.17
4.286,-0.86,1.98,-1.37,2.56
4.296,-1.11,-2.48,0.37,2.74
4.307,0.18,-0.20,-1.09,1.12
4.316,1.20,-1.04,2.08,2.62
4.327,-0.04,-0.33,-0.58,0.67
4.337,-0.96,-0.39,-0.40,1.11
4.347,-0.43,0.44,-1.00,1.18
4.357,1.08,0.49,0.22,1.20
4.367,1.23,1.15,0.87,1.89
4.377,2.06,1.23,-1.20,2.68
4.387,0.20,0.16,1.24,1.26
4.397,0.39,1.00,-0.67,1.26
4.407,-2.59,-2.97,0.54,3.97
4.417,-1.10,0.26,-0.70,1.33
4.427,-1.43,-0.66,-0.11,1.58
4.438,-0.46,-0.23,1.37,1.46
4.448,1.09,1.36,-2.90,3.38
4.458,0.59,-1.94,2.36,3.11
4.468,0.89,2.30,-1.29,2.79
4.478,-0.62,-1.17,-0.18,1.34
4.488,-0.26,0.63,1.31,1.48
4.498,2.18,1.73,-0.62,2.85
4.508,0.44,0.66,-1.88,2.04
4.518,0.38,-0.34,2.29,2.35
4.528,0.16,1.21,-1.27,1.76
4.538,-1.24,-3.04,1.95,3.82
4.549,-1.25,0.31,-0.62,1.43
4.559,-1.02,0.11,-1.66,1.95
4.569,-2.82,-0.86,0.49,2.99
4.579,1.87,1.36,-1.76,2.91
4.589,1.36,-1.64,2.78,3.50
4.599,1.28,2.07,-0.86,2.58
4.609,-0.23,-1.76,-0.69,1.91
4.619,-0.80,0.56,0.42,1.06
4.629,1.07,1.51,0.30,1.88
4.639,0.79,-0.29,-0.05,0.85
4.649,0.67,1.23,-0.39,1.45
4.659,-0.24,-1.09,-0.20,1.13
4.669,-0.94,-1.46,0.30,1.76
4.680,-0.23,0.08,-0.08,0.25
4.690,-1.30,-0.78,-0.33,1.56
4.700,-1.42,1.16,0.66,1.95
4.710,-0.15,2.15,-2.22,3.10
4.720,0.56,-1.14,0.85,1.53
4.730,1.20,1.25,0.13,1.74
4.740,0.61,-1.43,0.50,1.64
4.750,0.49,-1.36,0.73,1.62
4.760,0.89,0.33,-0.33,1.00
4.770,-0.17,0.34,-1.41,1.46
4.780,-0.33,1.10,2.03,2.33
4.791,1.72,1.74,-1.40,2.82
4.801,-1.62,-2.34,0.46,2.89
4.811,-1.45,0.96,-1.19,2.11
4.821,-0.43,0.25,-1.12,1.23
4.831,-1.58,-1.39,2.01,2.91
4.841,0.56,1.30,-0.23,1.44
4.851,0.93,-1.28,0.02,1.58
4.861,0.31,0.24,-0.74,0.84
4.871,0.74,0.47,-1.66,1.88
4.881,-0.13,-0.98,2.89,3.06
4.892,1.04,1.17,0.16,1.57
4.901,0.26,-0.70,-0.33,0.82
4.912,0.38,0.85,-1.36,1.64
4.922,-0.51,0.04,0.18,0.54
4.932,-0.32,0.81,0.25,0.91
4.942,-1.70,-0.33,-0.12,1.73
4.952,-1.32,-0.38,0.10,1.37
4.962,0.14,0.29,-1.91,1.93
4.972,0.45,-1.47,2.69,3.10
4.982,1.05,0.82,-2.11,2.50
4.992,-0.07,-1.64,1.41,2.16
5.002,0.41,1.95,-0.68,2.11
5.012,0.14,-0.22,-0.25,0.36
5.022,0.84,0.17,1.21,1.48
5.033,1.93,1.48,-0.99,2.62
5.043,-0.46,-1.10,1.27,1.74
5.053,-1.46,-1.09,-1.39,2.29
5.063,-1.06,-0.06,0.71,1.28
5.073,-2.02,1.39,-1.02,2.65
5.083,-0.61,-0.03,-0.87,1.07
5.093,1.26,1.19,0.45,1.79
5.103,1.30,0.12,0.16,1.32
5.113,0.90,-1.07,0.18,1.41
5.123,-1.41,-1.40,0.06,1.99
5.133,-0.23,-0.91,0.87,1.28
5.144,0.77,1.01,-1.15,1.71
5.154,0.72,0.00,0.89,1.15
5.164,1.23,2.39,-1.13,2.92
5.174,0.89,0.85,-0.20,1.24
5.184,-0.71,-0.23,0.78,1.07
5.194,-1.56,-0.75,-0.35,1.76
5.204,-1.56,-1.50,0.73,2.29
5.214,-1.35,-0.05,-0.63,1.49
5.224,0.29,-0.69,-0.79,1.09
5.234,1.38,-0.72,0.96,1.83
5.244,0.86,1.00,-1.03,1.67
5.255,-0.10,-0.71,0.71,1.00
5.265,-0.68,1.71,-1.01,2.10
5.275,0.67,0.23,0.49,0.86
5.285,1.30,0.52,1.18,1.83
5.295,0.71,1.18,-1.55,2.07
5.305,-0.08,-1.41,0.94,1.70
5.315,-0.63,-0.15,-0.26,0.70
5.325,-1.90,-0.68,-0.04,2.02
5.335,-1.39,-0.04,-0.71,1.56
5.345,-1.08,0.68,-0.03,1.27
5.355,2.06,1.08,-0.56,2.39
5.365,0.67,-1.01,0.74,1.42
5.376,0.22,0.19,-0.06,0.30
5.385,-0.57,-1.45,-0.03,1.56
5.396,-0.07,-0.42,-0.10,0.44
5.406,0.58,-0.27,0.96,1.16
5.416,1.23,1.62,-0.88,2.21
5.426,0.60,3.25,-2.29,4.02
5.436,1.57,-0.58,3.58,3.95
5.446,-1.23,1.48,-2.24,2.95
5.456,-1.77,-1.83,1.19,2.81
5.466,-3.20,-2.43,1.39,4.26
5.476,1.94,1.84,-3.30,4.25
5.486,0.55,-2.79,2.19,3.59
5.497,0.33,1.62,-3.45,3.83
5.507,-0.76,-0.61,2.51,2.69
5.517,0.51,1.03,0.22,1.17
5.527,-0.36,-0.26,-0.29,0.53
5.537,1.72,-0.80,1.83,2.63
5.547,1.43,1.41,-2.94,3.56
5.557,-0.81,-1.61,1.14,2.13
5.567,0.89,1.29,0.22,1.58
5.577,-2.08,-0.56,1.21,2.47
5.587,-1.85,1.34,-1.86,2.95
5.597,-0.32,-0.90,-1.62,1.88
5.607,-0.09,1.06,0.57,1.20
5.618,1.06,0.48,0.24,1.19
5.628,-0.19,-2.03,2.09,2.92
5.638,1.23,1.05,-1.00,1.90
5.648,-1.39,-1.02,-2.37,2.93
5.658,0.12,-1.16,1.87,2.21
5.668,1.91,1.96,-0.06,2.74
5.678,0.35,-1.39,1.66,2.19
5.688,0.88,1.57,-1.31,2.23
5.698,0.08,-0.01,-0.48,0.48
5.708,-1.35,-0.35,0.11,1.40
5.718,-1.23,1.84,-1.31,2.57
5.729,-2.71,-1.95,1.58,3.69
5.739,0.79,2.10,-1.64,2.78
5.749,1.12,-1.05,0.62,1.66
5.759,0.80,-1.32,0.49,1.62
5.769,-0.45,0.02,0.04,0.46
5.779,-0.75,-1.08,-0.59,1.43
5.789,1.43,0.19,0.51,1.53
5.799,1.05,0.78,1.41,1.93
5.809,0.69,0.81,-1.66,1.97
5.819,0.93,0.79,0.02,1.22
5.829,-0.40,-0.13,0.06,0.43
5.839,-1.36,-0.40,-0.53,1.51
5.850,-1.96,-0.43,0.89,2.20
5.860,-0.84,0.71,-1.03,1.51
5.870,-0.37,-0.57,-0.93,1.15
5.880,0.45,0.50,0.80,1.04
5.890,1.39,-0.36,-0.01,1.44
5.900,0.46,-0.90,0.56,1.16
5.910,-0.07,-0.36,-0.17,0.41
5.920,-0.17,-0.31,-0.04,0.35
5.930,1.68,1.10,0.31,2.03
5.940,-0.15,0.47,-0.54,0.73
5.950,0.85,1.04,-0.78,1.55
5.961,-0.55,-0.37,1.68,1.80
5.971,-1.01,1.10,-1.11,1.86
5.980,-2.31,-1.01,0.02,2.52
5.991,-0.12,-0.00,-0.62,0.64
6.001,-0.18,0.52,-0.78,0.96
6.011,0.41,-1.17,1.07,1.63
6.021,1.47,0.42,-0.10,1.53
6.031,-0.38,-1.01,0.75,1.31
6.041,0.04,-0.14,-1.33,1.33
6.051,0.28,-0.34,1.43,1.50
6.061,1.08,1.43,-0.96,2.03
6.072,0.87,0.42,0.40,1.04
6.082,0.80,1.76,0.21,1.94
6.092,-0.90,-0.72,-0.82,1.42
6.102,-1.27,-0.29,0.32,1.34
6.112,-1.96,0.13,-0.61,2.06
6.122,-0.99,-1.37,-0.54,1.78
6.132,0.19,0.87,0.65,1.10
6.142,1.08,-0.60,-0.20,1.25
6.152,1.06,-0.09,0.14,1.08
6.162,0.36,0.59,-0.13,0.70
6.172,-0.69,-1.28,0.07,1.45
6.182,0.86,1.67,0.60,1.97
6.192,0.40,-0.44,-0.16,0.62
6.203,0.37,0.29,-0.96,1.07
6.213,1.11,1.17,0.88,1.83
6.223,-0.65,-0.68,0.07,0.94
6.233,-1.48,-0.27,-0.31,1.53
6.243,-1.74,-0.14,-0.54,1.83
6.253,-0.40,-0.35,-1.10,1.22
6.263,-0.15,-0.06,1.15,1.16
6.273,0.42,-0.19,0.11,0.47
6.283,0.97,0.03,-0.50,1.10
6.293,0.33,0.19,0.04,0.39
6.304,0.04,-0.74,-0.36,0.82
6.313,0.35,0.20,1.33,1.39
6.323,1.34,0.61,-0.33,1.51
6.334,0.92,-0.16,-0.28,0.98
6.344,-0.12,0.89,-0.17,0.91
6.354,-1.07,-0.09,0.11,1.08
6.364,-1.35,-0.19,-0.08,1.37
6.374,-1.66,0.07,-1.01,1.94
6.384,-0.43,-0.06,-0.53,0.69
6.394,0.79,-0.04,1.05,1.31
6.404,0.89,0.04,-0.08,0.90
6.414,-0.02,-0.73,0.11,0.74
6.424,0.19,0.16,-0.26,0.36
6.435,-0.17,-0.42,-0.18,0.49
6.445,0.92,0.21,0.75,1.21
6.455,1.68,0.82,-0.30,1.89
6.465,0.60,0.68,-0.31,0.96
6.475,-0.27,0.12,0.50,0.58
6.485,-1.68,-0.66,-0.72,1.95
6.495,-1.81,0.09,0.04,1.81
6.505,-0.85,0.21,-0.38,0.95
6.515,0.05,-0.21,-0.57,0.61
6.525,0.61,0.21,0.75,0.99
6.535,1.00,-0.35,-0.22,1.08
6.545,0.13,-0.49,-0.02,0.51
6.556,-0.86,-0.25,0.11,0.90
6.566,0.51,0.16,0.10,0.54
6.576,1.41,1.11,0.28,1.82
6.586,1.08,0.67,-0.32,1.31
6.596,0.43,0.78,-0.44,0.99
6.606,-0.77,-0.65,0.87,1.33
6.616,-1.39,-0.63,-0.88,1.76
6.626,-1.51,-0.98,0.15,1.81
6.636,-0.74,1.04,-0.60,1.41
6.646,0.41,0.53,-0.63,0.92
6.656,-0.44,-0.67,1.73,1.91
6.666,1.44,1.81,-1.77,2.91
6.676,-0.11,-2.92,1.16,3.14
6.687,-0.40,0.42,-1.12,1.26
6.697,0.67,-1.14,1.72,2.17
6.707,1.72,2.04,-0.02,2.67
6.717,0.96,1.33,-0.44,1.70
6.727,0.13,0.89,-1.04,1.38
6.737,-0.81,-0.16,0.09,0.83
6.747,-1.59,-1.10,0.13,1.94
6.757,-0.60,-0.91,0.49,1.20
6.767,-0.87,-0.43,-0.44,1.06
6.777,-0.08,0.42,-0.54,0.68
6.787,0.03,0.78,-0.05,0.78
6.797,0.65,0.77,-0.12,1.02
6.808,0.67,-0.51,0.59,1.03
6.818,-0.38,-0.37,-0.82,0.97
6.828,0.35,-1.49,0.90,1.77
6.838,1.15,0.46,-0.15,1.25
6.848,0.06,-0.15,0.29,0.33
6.858,0.74,1.87,-0.27,2.03
6.868,-0.19,0.82,-0.63,1.05
6.878,-1.05,-0.88,0.19,1.39
6.888,-0.53,0.29,-0.53,0.81
6.898,-1.57,-1.87,0.72,2.55
6.909,-0.42,0.73,-0.86,1.20
6.919,-0.37,-1.09,0.20,1.16
6.928,0.61,0.79,-0.13,1.01
6.939,0.98,0.56,0.02,1.13
6.949,0.52,-0.01,-0.45,0.69
6.959,-0.21,-0.61,0.67,0.93
6.969,1.61,0.43,0.52,1.75
6.979,0.88,0.04,-0.98,1.32
6.989,-0.65,-0.50,0.77,1.12
6.999,0.16,1.18,-0.48,1.28
7.009,-1.45,-0.92,0.41,1.77
7.019,-0.99,0.99,-1.36,1.95
7.029,-1.16,-0.67,0.36,1.39
7.040,0.03,1.28,-0.70,1.46
7.050,0.54,-0.88,1.05,1.47
7.060,0.45,-0.20,-0.69,0.85
7.070,0.20,-0.21,0.42,0.51
7.080,0.14,-0.13,-0.18,0.26
7.090,0.17,0.11,0.31,0.37
7.100,1.48,0.47,0.47,1.62
7.110,1.02,0.91,-0.53,1.46
7.120,0.04,0.34,-0.53,0.63
7.130,-0.86,-1.07,0.67,1.53
7.141,-1.07,0.63,-0.50,1.34
7.151,-2.19,-0.27,0.30,2.23
7.161,-0.51,0.21,-1.84,1.92
7.171,0.23,0.28,0.98,1.04
7.181,1.08,-0.10,0.06,1.09
7.191,0.64,-0.34,0.45,0.85
7.201,-0.04,-0.30,-0.55,0.63
7.211,-0.62,-0.47,-0.59,0.97
7.221,0.18,-0.13,1.76,1.77
7.231,1.36,1.20,-0.75,1.96
7.241,1.60,-0.58,0.32,1.74
7.252,0.32,1.74,-0.92,1.99
7.261,-0.45,-0.65,-0.05,0.79
7.272,-2.46,-0.82,1.27,2.89
7.282,-2.18,1.21,-1.96,3.17
7.292,-0.08,-1.05,0.91,1.39
7.302,0.57,1.31,-0.93,1.71
7.312,0.90,-1.26,0.35,1.59
7.322,1.36,0.10,0.12,1.37
7.332,-0.97,-1.00,0.21,1.41
7.342,-0.89,-1.22,-0.49,1.59
7.352,0.53,0.85,-0.04,1.00
7.362,1.63,1.01,1.59,2.49
7.372,1.68,1.95,-1.27,2.87
7.383,0.68,0.28,0.01,0.73
7.393,-1.00,-0.41,0.41,1.16
7.403,-1.94,-0.03,-1.13,2.24
7.413,-2.53,-1.40,0.51,2.94
7.423,-0.17,0.90,-0.61,1.10
7.433,0.04,-0.48,-0.28,0.56
7.443,2.17,0.67,0.78,2.40
7.453,0.94,-0.45,-0.21,1.06
7.463,-1.28,-1.35,-0.39,1.90
7.473,-0.22,0.08,0.19,0.30
7.483,0.33,-0.60,-0.08,0.69
7.494,0.58,0.32,1.98,2.09
7.504,2.03,1.96,-2.27,3.62
7.514,0.10,-0.34,0.66,0.75
7.524,-0.19,1.62,-0.13,1.64
7.534,-2.45,-1.23,-0.54,2.80
7.544,-2.14,0.03,0.42,2.18
7.554,0.46,-0.14,-1.75,1.82
7.564,-0.54,-1.53,1.84,2.45
7.574,1.33,0.83,-1.69,2.30
7.584,0.42,-1.61,1.31,2.12
7.594,0.53,1.27,0.01,1.38
7.604,-0.76,-0.55,-0.43,1.03
7.614,1.40,0.77,-0.08,1.60
7.625,0.62,0.90,0.53,1.21
7.635,0.43,0.54,-0.92,1.15
7.645,0.40,-0.36,1.14,1.26
7.655,-0.87,0.57,-1.01,1.45
7.665,-2.16,-0.79,0.54,2.36
7.675,-0.89,0.81,-1.14,1.66
7.685,-0.18,-0.57,0.25,0.65
7.695,0.60,-0.04,-0.45,0.75
7.705,0.17,-1.24,0.28,1.28
7.715,0.50,0.59,0.97,1.24
7.725,0.22,0.01,-1.01,1.03
7.735,-0.71,-0.59,0.30,0.97
7.746,1.88,1.68,0.59,2.59
7.756,0.90,-0.17,-0.99,1.35
7.766,1.06,0.67,0.33,1.29
7.776,-0.26,0.25,0.05,0.36
7.786,-1.76,-1.16,0.40,2.14
7.796,-1.35,0.85,0.26,1.62
7.806,-1.45,-0.40,-2.37,2.81
7.816,-0.32,-0.44,0.11,0.55
7.826,1.13,0.49,1.68,2.08
7.836,0.56,-0.74,-0.94,1.32
7.846,0.32,-0.58,0.41,0.78
7.856,0.08,0.15,-0.37,0.41
7.867,0.09,0.29,0.09,0.31
7.877,0.93,0.65,0.97,1.49
7.887,0.83,0.63,-1.03,1.46
7.897,0.51,0.46,0.42,0.81
7.907,0.16,0.49,-0.83,0.98
7.917,-1.50,-2.15,1.14,2.86
7.927,-1.53,1.15,-1.09,2.20
7.937,-1.40,-0.98,0.69,1.85
7.947,0.06,0.67,-1.84,1.96
7.957,0.22,-0.03,1.03,1.05
7.968,1.11,0.56,-0.76,1.45
7.977,0.30,-1.10,1.44,1.83
7.987,0.15,0.27,-1.35,1.38
7.998,-0.24,-1.52,0.99,1.83
8.008,1.59,1.89,0.15,2.47
8.018,0.96,0.53,-0.45,1.19
8.028,0.00,0.25,-0.22,0.34
8.038,0.07,0.79,0.28,0.84
8.048,-1.55,-0.76,-0.48,1.79
8.058,-2.30,-0.16,0.17,2.31
8.068,-0.80,0.17,-0.97,1.27
8.078,0.58,-0.18,0.38,0.71
8.088,0.98,0.43,0.03,1.07
8.099,0.78,-0.73,0.41,1.15
8.109,-0.11,-0.55,-0.38,0.68
8.119,-0.31,0.31,-0.31,0.54
8.129,0.17,-0.90,0.47,1.03
8.139,0.64,1.19,0.33,1.39
8.149,1.29,0.54,-0.52,1.49
8.159,0.66,0.85,0.42,1.15
8.169,-0.19,0.61,-0.11,0.65
8.179,-1.78,-0.94,-0.57,2.10
8.189,-1.95,-0.08,-0.26,1.97
8.199,-0.91,0.14,-0.72,1.17
8.209,0.09,-1.01,0.35,1.08
8.220,0.58,-0.05,0.59,0.82
8.230,1.24,0.56,-0.44,1.42
8.240,0.14,-1.12,0.04,1.13
8.250,-0.01,0.63,-0.29,0.69
8.260,-0.08,-0.43,0.82,0.93
8.270,1.41,0.79,-0.15,1.63
8.280,0.30,0.26,-0.37,0.54
8.290,0.74,0.87,0.06,1.14
8.300,-0.37,-0.11,0.28,0.48
8.310,-1.83,-0.58,-0.53,1.99
8.321,-1.51,0.18,-0.26,1.54
8.330,-1.17,-0.48,-0.37,1.32
8.341,0.83,0.60,-0.43,1.11
8.351,0.36,-0.36,1.22,1.32
8.361,0.63,0.72,-0.84,1.27
8.371,0.47,-1.13,0.28,1.26
8.381,-0.41,0.05,-0.26,0.49
8.391,0.35,-0.63,0.38,0.81
8.401,1.79,0.23,0.94,2.04
8.411,0.93,1.64,-1.52,2.43
8.421,-0.41,-0.67,0.62,1.00
8.431,-0.27,1.51,-0.68,1.68
8.442,-1.88,-0.97,0.64,2.21
8.452,-2.24,0.42,-0.77,2.41
8.462,-0.23,-0.63,-0.79,1.04
8.472,0.93,-0.23,0.77,1.23
8.482,1.58,-0.16,-0.38,1.63
8.492,-0.10,-0.59,0.74,0.96
8.502,-0.33,0.36,-0.31,0.58
8.512,-0.97,-0.34,-0.52,1.15
8.522,0.67,0.34,-0.05,0.75
8.532,2.37,0.55,1.49,2.85
8.542,1.39,1.29,-1.62,2.50
8.552,-0.46,-0.92,1.03,1.45
8.563,-1.18,0.50,-0.69,1.46
8.573,-2.33,-1.09,-0.05,2.58
8.583,-1.32,1.04,-0.08,1.68
8.593,0.00,0.20,-1.05,1.07
8.603,0.50,-1.02,1.40,1.80
8.613,1.23,2.16,-1.68,3.00
8.623,-0.02,-3.18,1.92,3.71
8.633,-0.45,0.90,-1.72,1.99
8.643,-0.03,-0.90,1.43,1.69
8.653,1.00,0.73,1.06,1.63
8.663,2.05,1.97,-2.22,3.61
8.673,-0.09,-0.71,0.57,0.92
8.684,0.70,2.15,-0.24,2.27
8.694,-2.13,-1.80,0.20,2.80
8.704,-1.49,-0.87,0.08,1.73
8.714,-0.90,0.71,-0.25,1.17
8.724,-0.11,-0.44,-0.83,0.94
8.734,0.29,0.52,0.52,0.79
8.744,0.70,0.15,-0.63,0.95
8.754,0.74,-0.51,0.91,1.28
8.764,-0.04,0.62,-1.13,1.29
8.774,-1.07,-2.78,1.22,3.22
8.784,0.39,1.38,-0.36,1.48
8.794,2.11,0.62,0.32,2.23
8.804,0.21,1.07,-0.30,1.13
8.815,0.64,1.41,-0.81,1.75
8.825,-0.79,-1.28,0.93,1.77
8.835,-1.12,0.14,-0.87,1.42
8.845,-2.43,-1.81,0.57,3.09
8.855,-0.72,0.59,-1.04,1.40
8.865,0.40,0.16,0.28,0.51
8.875,0.78,0.93,-0.21,1.23
8.885,1.45,-0.25,0.23,1.49
8.895,0.04,-0.10,-0.20,0.23
8.905,-0.44,-1.09,0.20,1.20
8.916,0.15,0.14,0.06,0.22
8.926,1.02,0.69,0.17,1.25
8.936,1.04,0.49,-0.04,1.15
8.946,0.49,0.67,-0.26,0.87
8.956,-1.46,-0.90,1.10,2.03
8.966,-0.22,-0.44,-1.52,1.60
8.976,-2.49,-1.33,0.01,2.82
8.986,-0.18,1.41,-0.26,1.44
8.996,0.07,-0.79,-0.67,1.04
9.006,0.24,0.84,1.29,1.56
9.016,0.86,0.96,-1.09,1.69
9.027,-0.02,-0.32,-0.02,0.32
9.037,0.38,0.10,0.33,0.51
9.047,1.31,-1.17,0.80,1.93
9.057,1.09,0.57,-0.17,1.25
9.067,0.17,-0.11,-0.31,0.37
9.077,-1.12,0.29,-0.52,1.27
9.087,-0.78,0.35,0.92,1.26
9.097,-0.41,0.31,-0.75,0.91
9.107,-1.39,0.09,-1.15,1.81
9.117,-0.05,0.19,0.39,0.44
9.127,0.21,-0.49,0.20,0.58
9.138,0.02,-0.29,0.39,0.49
9.147,0.58,-0.61,-0.13,0.85
9.157,-0.26,0.07,-0.70,0.75
9.168,0.29,0.09,0.54,0.62
9.178,1.05,0.40,0.54,1.24
9.188,0.92,0.93,-0.54,1.42
9.198,0.91,0.50,0.02,1.04
9.208,-0.21,-0.00,-0.75,0.78
9.218,-2.25,-2.00,1.22,3.25
9.228,-1.50,1.57,-0.83,2.32
9.238,-0.44,-0.74,0.03,0.86
9.248,-0.07,1.10,-0.92,1.44
9.259,0.98,-0.11,0.26,1.02
9.268,0.00,-0.62,0.30,0.69
9.279,-0.20,0.22,0.05,0.30
9.289,-0.09,-1.62,0.06,1.63
9.299,0.45,0.89,-0.38,1.07
9.309,2.12,0.15,2.42,3.22
9.319,-0.00,0.41,1.23,1.30
9.329,0.66,1.13,-3.97,4.18
9.339,0.14,0.54,-2.73,2.79
9.349,-1.14,0.10,1.18,1.64
9.359,-2.28,-0.73,2.31,3.33
