time,ax,ay,az,atotal
0.000,-0.90,-1.38,3.28,3.67
0.010,1.60,1.17,1.55,2.52
0.020,0.93,-0.32,-2.03,2.26
0.030,0.72,1.60,-4.79,5.10
0.040,-0.15,0.03,1.61,1.61
0.050,-1.43,0.20,1.59,2.15
0.060,-2.28,-0.62,1.10,2.60
0.071,-1.38,-0.30,-0.99,1.73
0.081,1.05,1.30,-1.65,2.34
0.091,1.29,-1.04,-1.07,1.98
0.101,-1.07,-0.99,1.91,2.40
0.111,1.22,0.47,-0.17,1.32
0.121,-0.71,-1.99,1.00,2.34
0.131,0.90,1.98,-1.13,2.45
0.141,0.63,-0.48,0.40,0.89
0.151,1.50,1.50,-0.79,2.27
0.161,-0.34,0.51,1.13,1.29
0.172,-0.49,0.17,0.05,0.53
0.182,-0.99,-0.08,-0.93,1.36
0.192,-1.60,-0.27,-0.05,1.62
0.202,-0.48,0.13,-2.17,2.23
0.212,-1.17,-1.71,2.87,3.54
0.222,1.43,1.77,-0.65,2.37
0.232,0.36,-1.84,-0.24,1.89
0.242,0.13,0.69,-0.49,0.86
0.252,0.02,-0.46,-0.29,0.54
0.262,0.58,0.43,1.21,1.41
0.272,1.73,1.17,0.23,2.10
0.282,0.12,-0.18,-0.61,0.65
0.292,0.48,1.11,-0.08,1.21
0.303,-1.05,0.28,-0.35,1.15
0.313,-1.29,-1.58,-0.19,2.05
0.323,-1.80,-0.17,0.80,1.98
0.333,0.10,0.51,-2.11,2.17
0.343,-0.65,-1.52,1.54,2.26
0.353,1.29,2.17,-0.42,2.56
0.363,0.08,-1.53,-0.40,1.59
0.373,-0.15,1.12,-0.11,1.14
0.383,-0.10,-0.50,0.92,1.05
0.393,0.69,-0.28,-0.10,0.75
0.404,1.62,0.50,0.19,1.71
0.414,1.10,0.46,-0.95,1.52
0.424,-0.92,0.42,0.64,1.20
0.434,-0.69,0.14,0.27,0.76
0.444,-1.69,-0.15,-0.75,1.86
0.454,-1.33,-0.20,-0.47,1.42
0.464,-0.25,-0.26,-0.49,0.61
0.474,0.68,0.53,-0.23,0.90
0.484,-0.14,-0.81,1.95,2.11
0.494,1.07,0.78,-2.13,2.51
0.504,-0.67,-1.84,2.08,2.86
0.514,0.55,1.53,-2.10,2.65
0.524,0.39,-1.69,1.73,2.45
0.535,1.84,1.86,-0.44,2.65
0.545,0.51,0.74,-0.42,0.99
0.555,0.24,0.45,-0.02,0.51
0.565,-1.45,-0.51,0.12,1.54
0.575,-1.82,-0.22,0.26,1.85
0.585,-1.26,-0.42,-0.97,1.65
0.595,-0.11,-0.12,0.15,0.22
0.605,1.06,0.66,-0.81,1.49
0.615,0.05,-1.01,0.96,1.40
0.625,0.10,1.07,0.05,1.08
0.635,-0.81,-1.66,-0.59,1.94
0.645,-0.37,-0.29,-0.00,0.47
0.656,1.80,1.08,0.44,2.15
0.666,1.33,-0.02,0.28,1.36
0.676,0.65,1.45,-0.56,1.68
0.686,-0.51,0.17,-0.06,0.54
0.696,-0.83,0.47,-0.19,0.97
0.706,-2.14,-1.33,0.64,2.60
0.716,-1.21,0.02,-1.38,1.84
0.726,0.83,-0.15,0.51,0.98
0.736,0.26,0.33,-0.21,0.47
0.746,-0.02,-0.70,-0.33,0.77
0.757,0.60,0.25,1.01,1.20
0.767,-0.34,-0.40,-0.77,0.93
0.777,-0.95,-0.85,-0.81,1.51
0.787,1.66,0.75,1.88,2.62
0.797,1.88,1.15,0.38,2.23
0.807,0.14,0.40,-1.76,1.81
0.817,-0.13,0.36,0.36,0.52
0.827,-1.13,0.02,0.20,1.15
0.837,-1.63,-0.53,-0.34,1.75
0.847,-0.73,-0.64,-0.21,0.99
0.857,-0.58,0.44,-0.16,0.75
0.867,0.69,0.57,-0.22,0.92
0.877,0.24,-0.38,0.32,0.55
0.888,0.42,0.49,-0.72,0.96
0.897,-0.27,-1.60,0.45,1.68
0.908,0.23,0.00,0.14,0.27
0.918,0.89,-0.24,1.15,1.47
0.928,1.26,0.49,-1.06,1.72
0.938,0.33,1.35,0.23,1.41
0.948,-0.18,1.04,-0.30,1.10
0.958,-1.07,-0.13,-0.51,1.19
0.968,-1.42,-0.73,0.60,1.70
0.978,-0.58,-0.11,-1.12,1.27
0.988,-0.02,-0.76,0.43,0.88
0.998,-0.76,-0.32,0.39,0.91
1.009,1.15,0.16,-0.16,1.17
1.019,-0.14,0.21,-0.29,0.38
1.029,-0.31,0.41,-0.88,1.02
1.039,0.25,-0.48,1.07,1.20
1.049,1.76,1.09,0.52,2.13
1.059,1.62,-0.59,0.05,1.72
1.069,-0.23,0.48,-0.79,0.95
1.079,-1.17,0.09,-0.01,1.17
1.089,-1.03,-0.00,0.63,1.21
1.099,-1.37,0.89,-1.10,1.97
1.109,-1.14,-0.77,-0.02,1.38
1.120,0.86,0.82,-0.87,1.47
1.130,0.42,-0.90,1.10,1.48
1.140,0.76,-0.11,-0.45,0.89
1.150,-0.93,-0.69,0.74,1.38
1.160,0.60,0.31,-1.10,1.29
1.170,-0.23,-0.19,0.69,0.75
1.180,1.21,0.62,0.50,1.44
1.190,1.39,0.79,-0.39,1.65
1.200,0.76,0.93,-0.30,1.24
1.210,-1.24,-1.26,0.26,1.79
1.220,-1.34,0.49,-0.07,1.42
1.230,-1.76,-0.27,-0.31,1.80
1.240,-0.66,0.52,-0.79,1.15
1.251,0.91,0.47,-0.34,1.08
1.261,0.34,-0.42,0.90,1.05
1.271,0.97,0.39,-0.33,1.09
1.281,-1.29,-2.43,0.51,2.80
1.291,-0.70,-0.17,-1.49,1.65
1.301,1.34,-0.07,1.36,1.91
1.311,1.55,1.43,0.60,2.19
1.321,0.80,0.87,-0.58,1.31
1.331,0.48,0.97,-0.49,1.19
1.341,-0.97,0.18,-0.13,1.00
1.351,-2.26,-1.11,-0.10,2.52
1.362,-1.46,-0.29,0.45,1.56
1.372,0.09,0.23,-1.07,1.10
1.382,0.30,0.05,0.99,1.04
1.392,0.65,-0.03,-1.32,1.47
1.402,0.18,-0.71,0.62,0.96
1.412,0.06,0.54,-0.06,0.55
1.422,-0.53,-1.44,-0.28,1.56
1.432,-0.57,-0.66,1.09,1.39
1.442,2.57,1.35,-0.10,2.91
1.452,1.13,0.62,-0.38,1.35
1.462,0.23,0.94,-0.83,1.27
1.473,-1.29,-0.10,0.99,1.63
1.483,-1.01,1.49,-0.47,1.86
1.493,-2.21,-1.92,-0.16,2.93
1.503,-0.54,0.40,-1.55,1.69
1.513,0.90,-0.50,1.37,1.72
1.523,0.44,0.01,-0.03,0.44
1.533,0.68,-0.44,-0.21,0.84
1.543,-0.11,-1.29,0.38,1.35
1.553,0.24,1.10,-1.04,1.53
1.563,-0.27,-0.70,1.27,1.47
1.573,1.76,1.02,0.30,2.05
1.583,0.32,1.10,-0.69,1.34
1.594,0.23,-0.08,0.09,0.26
1.604,-0.29,0.62,-0.53,0.86
1.614,-1.84,-0.25,0.15,1.86
1.624,-1.31,-0.21,-0.24,1.34
1.634,-0.36,0.30,-1.25,1.34
1.644,-0.11,-0.55,1.52,1.62
1.654,1.10,-0.03,-1.13,1.57
1.664,0.14,-0.55,1.36,1.47
1.674,0.23,-0.14,-0.77,0.82
1.684,-0.50,-0.86,0.14,1.01
1.694,1.04,1.16,0.65,1.69
1.705,1.18,0.16,-0.18,1.21
1.715,0.41,0.59,-1.28,1.47
1.725,-0.07,0.40,1.22,1.29
1.735,-0.81,0.93,-0.57,1.36
1.745,-2.51,-0.58,0.55,2.63
1.755,-0.73,1.08,-1.65,2.10
1.765,0.34,-1.65,-0.13,1.69
1.775,1.23,0.82,0.69,1.63
1.785,-0.31,-2.14,0.17,2.17
1.795,-0.39,-0.14,0.60,0.73
1.805,0.11,0.90,-1.28,1.57
1.815,-0.63,-1.43,0.02,1.56
1.826,2.42,2.65,1.36,3.84
1.836,1.69,0.39,-0.05,1.74
1.846,-0.02,0.44,-0.74,0.86
1.856,-1.16,-0.23,-0.33,1.22
1.866,-1.05,-1.12,-0.28,1.57
1.876,-0.60,0.88,0.52,1.19
1.886,-1.45,-1.13,0.80,2.00
1.896,0.17,1.41,-2.20,2.62
1.906,0.31,-0.79,0.30,0.90
1.916,0.30,0.71,0.19,0.80
1.926,0.17,-0.65,0.15,0.69
1.936,-1.13,-1.76,0.76,2.23
1.947,1.26,1.51,-0.73,2.10
1.957,0.53,-1.54,1.05,1.94
1.967,1.91,2.23,-0.95,3.09
1.977,0.56,0.24,0.06,0.61
1.987,-0.80,0.25,0.49,0.97
1.997,-0.96,0.23,-0.48,1.09
2.007,-1.74,-1.60,-0.28,2.38
2.017,-0.76,0.14,-0.39,0.86
2.027,-0.52,-0.31,0.54,0.81
2.037,0.89,0.75,-1.32,1.76
2.047,0.08,-0.61,1.22,1.37
2.057,0.37,0.74,-0.89,1.21
2.068,-0.52,-1.31,0.72,1.58
2.077,0.29,0.26,-0.42,0.58
2.088,1.45,0.29,1.20,1.90
2.098,1.28,0.60,-0.77,1.61
2.108,0.15,0.17,-0.32,0.39
2.118,-0.38,0.73,0.29,0.87
2.128,-0.87,-0.09,-0.05,0.88
2.138,-1.57,0.32,0.24,1.62
2.148,-1.76,-0.09,-2.13,2.77
2.158,-0.29,-0.63,0.88,1.12
2.169,0.88,0.98,-0.13,1.32
2.178,0.60,-1.42,0.61,1.65
2.189,0.41,-0.61,0.76,1.06
2.199,0.67,0.67,-1.40,1.69
2.209,-0.64,-0.87,0.09,1.08
2.219,1.40,1.15,0.87,2.01
2.229,0.67,0.14,-0.01,0.68
2.239,0.74,1.03,-0.71,1.46
2.249,-0.55,0.10,0.54,0.78
2.259,-0.86,0.36,-0.29,0.98
2.269,-2.11,-0.58,-0.26,2.20
2.279,-0.85,-0.41,-0.91,1.31
2.289,0.44,-0.06,-0.07,0.45
2.300,-0.22,-0.01,0.59,0.63
2.310,0.89,-0.30,0.32,0.99
2.320,0.02,-0.11,0.17,0.21
2.330,-0.14,0.22,-2.08,2.10
2.340,-0.17,-0.98,2.47,2.66
2.350,2.78,2.90,-0.86,4.11
2.360,-0.13,-1.67,0.24,1.69
2.370,0.54,1.44,-0.10,1.54
2.380,-0.72,-0.06,0.28,0.77
2.390,-1.86,-0.98,-0.82,2.25
2.400,-1.01,-0.26,-0.43,1.12
2.410,-0.55,0.11,-0.01,0.56
2.421,0.03,0.40,-0.30,0.50
2.431,-0.26,0.05,0.74,0.78
2.441,1.16,0.34,-0.70,1.40
2.451,-0.07,-0.33,0.75,0.82
2.461,0.63,0.32,-0.97,1.20
2.471,-0.62,-1.89,0.99,2.22
2.481,1.82,1.72,-0.41,2.54
2.491,1.07,-0.68,1.27,1.79
2.501,0.06,1.49,-1.52,2.13
2.511,-1.22,-0.84,0.27,1.51
2.521,-1.13,0.19,-0.78,1.39
2.531,-0.78,0.82,0.62,1.29
2.542,-0.20,-0.07,-0.99,1.01
2.552,-0.89,-0.88,0.71,1.44
2.562,0.88,1.41,-0.91,1.89
2.572,-0.53,-2.95,0.39,3.02
2.582,0.27,0.70,0.03,0.75
2.592,0.52,-0.23,0.79,0.97
2.602,0.72,0.04,-0.38,0.81
2.612,1.31,1.22,1.08,2.09
2.622,1.10,1.22,-2.31,2.84
2.632,-0.97,-0.57,0.86,1.42
2.642,-0.45,1.03,0.62,1.28
2.653,-1.81,-1.78,-0.44,2.58
2.663,-0.65,0.10,-0.29,0.72
2.673,-0.36,0.26,-0.75,0.87
2.683,-0.34,-0.58,0.14,0.69
2.693,0.65,0.53,0.22,0.87
2.703,0.47,-0.35,0.06,0.59
2.713,-0.34,-0.33,-0.39,0.62
2.723,-0.71,-0.18,0.01,0.73
2.733,1.88,0.62,1.25,2.34
2.743,1.46,0.35,-0.22,1.51
2.753,0.26,-0.03,-1.09,1.12
2.764,-0.14,0.44,0.75,0.88
2.774,-0.95,-0.11,-0.14,0.96
2.784,-1.67,-0.79,-0.24,1.86
2.794,-1.44,1.13,-0.34,1.86
2.804,0.03,0.79,-0.94,1.22
2.814,0.21,0.28,0.37,0.51
2.824,0.72,-0.00,0.22,0.75
2.834,0.18,-1.61,0.10,1.62
2.844,0.01,-0.40,0.03,0.40
2.854,-0.22,-1.23,-0.09,1.25
2.864,0.74,0.15,0.03,0.76
2.874,1.73,2.48,1.53,3.39
2.885,0.44,0.93,-2.37,2.58
2.895,-0.56,0.52,0.29,0.82
2.905,-0.55,0.38,0.70,0.97
2.915,-1.17,-1.93,-0.30,2.28
2.925,-0.30,-0.75,-0.03,0.81
2.935,-0.90,-0.51,-0.16,1.05
2.945,0.25,1.53,-0.30,1.58
2.955,0.72,1.09,1.47,1.97
2.965,2.40,3.49,-0.54,4.27
2.975,2.22,1.40,-0.06,2.63
2.985,0.85,0.11,-0.01,0.85
2.995,-0.88,0.94,-0.18,1.30
3.006,-4.54,-0.46,0.06,4.56
3.015,-1.92,1.84,-1.56,3.08
3.026,-1.16,-1.31,-0.35,1.79
3.036,-0.09,-1.26,-0.32,1.31
3.046,1.25,-0.39,2.79,3.08
3.056,1.52,0.64,1.26,2.07
3.066,0.49,-0.80,-4.08,4.18
3.076,-0.25,-0.67,-1.76,1.90
3.086,-0.51,0.38,5.04,5.08
3.096,-1.09,1.05,0.55,1.61
3.106,-0.93,-0.95,-4.07,4.28
3.117,-0.80,-0.90,-2.36,2.65
3.127,-0.19,-0.98,3.20,3.35
3.137,0.40,-1.04,0.43,1.20
3.147,0.60,-0.39,-0.23,0.75
3.157,0.82,0.06,0.20,0.85
3.167,0.86,-0.45,-2.05,2.27
3.177,-0.15,-0.36,0.57,0.70
3.187,0.03,0.56,1.79,1.88
3.197,-0.23,-0.23,-1.35,1.39
3.207,-1.70,-0.56,-0.32,1.81
3.217,0.37,0.11,-0.69,0.79
3.227,-0.54,-2.34,0.10,2.41
3.237,0.92,0.10,1.17,1.49
3.248,-0.42,-1.60,-0.43,1.71
3.258,-0.17,-0.38,-0.95,1.04
3.268,0.05,-0.84,0.23,0.87
3.278,-0.77,-0.93,-0.72,1.40
3.288,-0.08,-1.48,0.71,1.65
3.298,0.40,-0.65,-0.15,0.77
3.308,0.83,-0.28,1.14,1.44
3.318,5.79,3.50,3.33,7.54
3.328,2.84,1.00,-6.27,6.96
3.338,0.10,1.14,2.14,2.43
3.348,0.01,1.07,1.50,1.85
3.358,-3.32,-2.18,-1.17,4.14
3.369,-2.85,-0.97,0.89,3.14
3.379,-2.49,1.84,-0.14,3.10
3.389,-0.97,1.78,-2.27,3.04
3.399,3.89,1.97,-0.32,4.37
3.409,0.71,1.14,1.45,1.97
3.419,1.95,0.95,0.71,2.29
3.429,-0.37,-0.45,0.72,0.93
3.439,-4.04,-0.85,-2.65,4.91
3.449,-1.45,-0.76,0.02,1.63
3.459,-0.30,-0.11,-0.26,0.41
3.470,-0.72,-1.02,0.67,1.42
3.480,2.07,0.05,0.91,2.26
3.490,0.95,-0.02,-1.16,1.50
3.500,-0.71,-1.38,-0.02,1.55
3.510,-0.16,-0.07,0.19,0.26
3.520,0.27,1.02,1.07,1.50
3.530,0.71,0.63,-0.20,0.97
3.540,1.43,1.12,-1.75,2.53
3.550,1.23,1.03,0.86,1.82
3.560,-0.22,0.16,0.14,0.31
3.570,-2.81,-1.49,0.62,3.24
3.580,-2.28,-0.11,-1.18,2.57
3.590,-0.27,-0.18,-0.92,0.97
3.601,1.03,0.55,0.81,1.42
3.610,0.78,-0.60,0.06,0.99
3.621,0.38,-0.13,0.09,0.41
3.631,-0.28,-0.12,-0.48,0.57
3.641,0.00,-0.62,0.42,0.75
3.651,0.97,0.14,1.05,1.43
3.661,1.81,1.41,0.37,2.33
3.671,0.83,1.00,-1.85,2.26
3.681,-1.49,-1.28,1.03,2.21
3.691,-0.95,1.02,-0.64,1.53
3.701,-1.85,0.47,-0.53,1.98
3.711,-1.36,-0.17,-0.81,1.59
3.722,-0.29,-0.02,-0.58,0.65
3.732,1.55,0.38,1.08,1.93
3.742,0.67,-1.34,0.90,1.75
3.752,0.14,-0.93,-0.60,1.11
3.762,-0.58,-0.91,0.26,1.11
3.772,0.64,1.40,-0.92,1.79
3.782,0.52,-0.14,1.20,1.32
3.792,1.01,1.55,-0.21,1.86
3.802,0.57,0.44,-0.76,1.05
3.812,0.11,0.57,0.21,0.61
3.822,-1.80,0.23,-0.04,1.81
3.832,-1.96,-0.25,-0.87,2.16
3.843,-0.14,-0.42,-0.05,0.44
3.853,0.33,-0.22,0.81,0.90
3.863,-0.45,-0.86,-1.30,1.62
3.873,0.19,-1.77,2.45,3.03
3.883,0.64,0.85,-1.60,1.92
3.893,-0.45,-0.50,-0.86,1.09
3.903,-0.18,-0.16,1.48,1.50
3.913,1.82,1.68,-0.07,2.48
3.923,1.02,-0.16,-0.11,1.03
3.933,2.08,0.45,4.38,4.87
3.943,-1.88,0.01,-1.73,2.55
3.954,-1.81,0.86,0.20,2.02
3.964,-1.91,0.92,-0.58,2.19
3.974,-0.38,-0.55,-4.57,4.62
3.984,0.13,-0.32,2.51,2.53
3.994,-0.26,-1.15,0.50,1.28
4.004,0.43,1.64,1.48,2.25
4.014,0.02,-0.10,-0.65,0.66
4.024,0.87,1.42,-2.30,2.84
4.034,0.91,0.45,1.69,1.97
4.044,0.99,-0.13,-0.96,1.39
4.054,0.27,0.26,0.72,0.82
4.064,0.28,-0.16,0.71,0.78
4.075,-0.47,0.15,-1.87,1.94
4.085,-1.03,0.74,0.36,1.31
4.095,-1.06,-0.64,-1.52,1.96
4.105,-0.37,-0.85,0.80,1.23
4.115,-0.14,-1.28,0.17,1.30
4.125,-0.02,-0.76,-1.31,1.52
4.135,-0.05,-0.80,-0.13,0.81
4.145,0.14,-1.76,1.35,2.22
4.155,0.23,0.61,-0.01,0.65
4.165,0.81,0.49,-1.10,1.45
4.175,1.41,4.10,-3.15,5.36
4.186,3.02,5.30,-1.88,6.38
4.196,-1.33,2.74,1.12,3.25
4.206,-2.06,3.88,-0.96,4.50
4.216,-1.90,4.29,-3.26,5.71
4.226,1.17,-3.06,-0.25,3.28
4.236,-2.08,-5.63,8.91,10.74
4.246,1.06,-1.06,-9.50,9.62
4.256,0.75,-1.99,9.53,9.76
4.266,-1.33,-2.89,1.65,3.59
4.276,0.69,-0.92,-0.13,1.16
4.286,-0.10,-0.80,1.02,1.30
4.296,0.36,0.12,-4.46,4.47
4.306,1.29,-1.36,-3.26,3.76
4.317,-0.43,-1.23,2.62,2.92
4.327,0.94,0.63,0.89,1.44
4.337,-0.47,-2.82,1.57,3.26
4.347,-0.89,0.82,-0.10,1.21
4.357,-1.06,1.06,-2.16,2.63
4.367,-1.36,0.02,-1.91,2.35
4.377,0.75,2.12,1.67,2.81
4.387,0.90,0.29,0.40,1.03
4.397,1.05,-1.43,0.40,1.82
4.407,-0.47,-0.97,-0.35,1.13
4.417,0.43,-0.94,-0.70,1.25
4.428,0.60,-0.27,1.25,1.41
4.438,0.05,0.71,-0.66,0.97
4.448,0.55,0.38,0.59,0.89
4.458,1.11,2.17,-1.34,2.78
4.468,-1.21,-0.50,0.71,1.49
4.478,-0.73,1.29,-0.73,1.65
4.488,-2.11,-1.13,0.42,2.43
4.498,-0.74,-0.12,-1.10,1.33
4.508,0.65,-0.72,0.38,1.04
4.518,-0.38,-1.55,0.31,1.63
4.528,1.58,0.93,0.16,1.84
4.539,-0.65,-1.05,-0.08,1.24
4.549,-0.04,0.45,-0.26,0.52
4.559,1.33,0.88,0.77,1.77
4.569,1.21,0.70,-1.02,1.73
4.579,1.00,0.60,0.22,1.19
4.589,-0.54,0.45,0.80,1.06
4.599,-1.17,-0.34,-1.07,1.62
4.609,-1.63,-0.80,0.88,2.01
4.619,-1.30,0.50,-2.00,2.44
4.629,-0.67,-1.35,0.31,1.54
4.639,1.35,1.31,0.71,2.00
4.649,0.25,-1.19,-0.07,1.22
4.660,-0.05,-0.68,0.45,0.82
4.670,0.65,0.89,-0.99,1.48
4.680,-0.68,-1.00,0.41,1.27
4.690,1.67,1.83,0.49,2.53
4.700,0.69,-0.31,-0.65,1.00
4.710,1.11,0.91,0.43,1.50
4.720,-0.23,0.86,0.04,0.90
4.730,-2.50,-1.92,-0.32,3.17
4.740,-1.39,0.88,-0.33,1.68
4.750,-0.99,-0.02,-1.02,1.42
4.760,0.14,-0.18,0.29,0.37
4.771,1.18,-0.08,0.83,1.44
4.781,0.75,0.03,-0.35,0.83
4.791,-0.24,-0.89,-0.25,0.96
4.801,-0.66,-0.49,-0.35,0.90
4.811,0.43,0.39,1.42,1.53
4.821,1.31,1.21,-0.58,1.88
4.831,0.83,0.14,-0.19,0.86
4.841,0.90,1.46,-0.65,1.84
4.851,-0.58,-0.83,0.64,1.20
4.861,-1.11,-0.31,-0.47,1.25
4.871,-1.70,-1.34,0.66,2.27
4.881,-0.71,1.23,-0.35,1.46
4.892,-0.38,-0.19,-1.33,1.39
4.902,-0.26,-0.05,0.29,0.39
4.912,1.11,1.18,-0.11,1.62
4.922,0.36,-1.38,1.36,1.97
4.932,1.05,0.62,-0.75,1.43
4.942,-0.03,-1.35,0.23,1.37
4.952,0.78,1.28,-0.35,1.54
4.962,0.64,1.13,0.35,1.35
4.972,-0.33,-0.29,0.03,0.45
4.982,-0.30,0.71,-0.84,1.14
4.992,-0.60,-1.54,0.90,1.88
5.003,-0.74,0.48,-0.98,1.32
5.013,-1.29,-1.45,0.15,1.94
5.023,-0.63,1.12,-0.10,1.29
5.033,0.51,0.29,-0.09,0.59
5.043,0.81,0.55,-0.10,0.99
5.053,0.74,-0.07,-0.51,0.90
5.063,-0.64,-1.32,0.61,1.59
5.073,1.39,0.34,0.20,1.45
5.083,0.08,-0.38,0.49,0.63
5.093,0.93,1.00,-0.25,1.39
5.103,0.23,1.29,-0.48,1.40
5.113,-0.14,0.88,-1.00,1.34
5.123,-1.38,-1.89,1.09,2.59
5.133,-0.44,-0.27,0.29,0.59
5.144,-0.84,-0.44,-0.12,0.95
5.154,-0.95,-1.53,-1.46,2.32
5.164,-1.13,0.11,0.53,1.25
5.174,1.01,1.62,-0.04,1.91
5.184,1.30,-0.27,-0.27,1.36
5.194,1.05,1.03,0.71,1.63
5.204,0.03,-0.11,-0.15,0.19
5.214,0.76,-0.15,-0.30,0.83
5.224,0.44,0.32,0.20,0.58
5.234,-0.61,-0.67,0.23,0.94
5.245,-0.36,-0.11,-0.22,0.43
5.255,-0.41,0.23,0.19,0.50
5.265,-1.53,0.25,-0.79,1.74
5.275,-0.95,1.08,-0.87,1.67
5.285,0.60,-0.10,0.87,1.06
5.295,0.31,-0.05,-0.20,0.37
5.305,-0.10,-1.45,0.13,1.46
5.315,0.40,-0.19,0.20,0.48
5.325,-0.41,-0.48,-0.00,0.63
5.335,0.47,0.08,-0.37,0.60
5.345,1.70,0.88,0.77,2.07
5.356,1.05,1.40,-0.94,1.98
5.366,0.32,-0.09,-0.25,0.41
5.376,-0.78,0.82,1.23,1.67
5.386,-2.37,-0.89,-1.35,2.87
5.396,-2.29,-1.09,1.08,2.76
5.406,0.51,1.23,-2.40,2.75
5.416,0.34,-1.48,0.84,1.74
5.426,1.31,1.05,0.70,1.82
5.436,0.29,-0.50,0.60,0.83
5.446,-0.63,-0.73,-2.14,2.35
5.456,-1.33,-0.38,1.72,2.20
5.466,1.53,1.34,-0.36,2.06
5.476,1.60,-0.05,0.54,1.69
5.487,1.41,0.89,0.28,1.69
5.497,0.41,0.69,-1.74,1.92
5.507,-1.31,-0.32,0.29,1.38
5.517,-2.37,-0.50,1.83,3.04
5.527,-1.03,0.71,-2.20,2.53
5.537,-0.15,-0.98,0.11,1.00
5.547,0.56,1.46,0.02,1.57
5.557,0.62,-1.29,-0.14,1.44
5.567,-0.06,-0.34,0.41,0.53
5.577,0.58,-0.26,-0.11,0.65
5.587,-0.74,-1.67,-0.10,1.83
5.598,0.46,0.99,0.78,1.34
5.608,1.60,1.08,-0.36,1.96
5.618,0.77,0.61,-0.10,0.99
5.628,0.06,1.08,-0.33,1.14
5.638,-1.02,-0.26,0.32,1.10
5.648,-1.74,0.20,-0.50,1.82
5.658,-1.74,-1.08,-0.26,2.06
5.668,0.32,0.10,-0.55,0.65
5.678,0.74,0.20,0.42,0.87
5.688,0.96,-0.15,1.12,1.48
5.698,0.48,-0.17,-1.69,1.76
5.708,-0.91,-1.28,1.19,1.97
5.719,0.02,0.76,-1.38,1.57
5.728,-0.95,-1.85,1.49,2.56
5.739,2.56,2.55,-0.11,3.61
5.749,1.49,-0.02,0.51,1.58
5.759,0.55,2.36,-1.56,2.88
5.769,-1.49,-0.26,1.03,1.83
5.779,-2.27,0.01,-1.02,2.49
5.789,-1.19,-0.56,-0.31,1.35
5.799,-0.46,-1.46,-0.17,1.54
5.809,0.87,0.28,0.72,1.16
5.819,0.96,-0.58,0.02,1.12
5.829,-0.16,0.06,0.02,0.17
5.840,-0.31,0.21,-0.61,0.72
5.849,0.25,-1.11,0.35,1.19
5.860,1.72,1.97,0.55,2.67
5.870,0.12,-0.28,-0.27,0.40
5.880,0.67,0.61,-1.14,1.46
5.890,0.02,0.11,1.91,1.91
5.900,-1.23,0.82,-1.57,2.16
5.910,-2.63,-1.59,0.63,3.14
5.920,0.01,1.26,-0.93,1.57
5.930,-0.01,-0.90,-0.66,1.12
5.940,0.54,-0.46,0.89,1.14
5.951,0.32,-0.05,-0.26,0.42
5.961,-0.32,-1.32,0.97,1.67
5.971,0.44,1.40,-1.62,2.19
5.981,-0.45,-1.76,1.53,2.38
5.991,2.23,2.04,0.07,3.02
6.001,1.65,0.61,-0.75,1.91
6.011,-0.27,-0.98,0.38,1.09
6.021,-0.23,1.94,-0.85,2.13
6.031,-2.37,-1.47,0.94,2.95
6.041,-0.85,0.95,-0.80,1.50
6.051,-1.06,-0.38,-0.20,1.14
6.061,0.54,0.12,-1.03,1.17
6.072,0.40,-0.28,0.83,0.96
6.082,0.35,-0.20,0.21,0.45
6.092,0.22,-1.14,0.47,1.25
6.102,-0.07,0.50,-0.26,0.57
6.112,-0.07,-0.53,-0.22,0.58
6.122,1.24,0.93,0.45,1.62
6.132,1.64,0.90,-0.44,1.92
6.142,0.06,0.02,0.04,0.07
6.152,-0.43,0.55,0.30,0.76
6.162,-1.44,-0.34,-0.03,1.48
6.172,-2.25,-0.40,-0.76,2.41
6.182,-0.51,0.76,-1.00,1.36
6.193,0.78,-0.38,0.42,0.96
6.203,0.77,0.28,1.08,1.36
6.213,-0.17,-0.85,-0.78,1.17
6.223,0.05,-0.64,-0.12,0.65
6.233,0.12,-0.01,-0.57,0.58
6.243,0.12,-0.66,1.75,1.87
6.253,2.51,2.12,-0.14,3.29
6.263,-0.04,-0.79,-0.50,0.94
6.273,0.31,1.42,-0.49,1.53
6.283,-0.57,-0.09,-0.28,0.64
6.293,-2.48,-0.21,0.33,2.51
6.304,-1.02,1.75,-2.72,3.39
6.313,-0.61,-1.65,2.98,3.47
6.324,1.27,3.28,-2.47,4.30
6.334,0.02,-3.60,3.21,4.82
6.344,0.53,0.10,-2.15,2.21
6.354,-0.17,-1.05,0.56,1.20
6.364,-0.33,-1.17,-0.17,1.23
6.374,1.19,1.11,0.53,1.71
6.384,0.93,-0.23,0.80,1.25
6.394,1.50,1.76,-1.67,2.85
6.404,-0.51,1.03,0.82,1.41
6.414,-0.58,1.16,-0.86,1.55
6.425,-1.51,-0.69,0.53,1.74
6.435,-1.40,-0.41,-0.99,1.76
6.445,-0.37,-0.38,-0.10,0.54
6.455,-0.12,-0.90,0.10,0.91
6.465,0.42,-0.14,0.53,0.69
6.475,0.60,-0.07,-0.08,0.61
6.485,-0.54,-0.77,-0.96,1.35
6.495,-0.03,-0.23,0.76,0.80
6.505,1.17,1.20,0.15,1.68
6.515,1.26,-0.69,0.87,1.68
6.525,1.08,1.63,-1.57,2.51
6.535,-0.56,0.08,0.95,1.11
6.545,-0.52,0.57,-0.77,1.09
6.556,-1.15,-0.50,0.54,1.37
6.566,-1.33,-0.22,-0.52,1.45
6.576,-0.29,-0.32,-1.27,1.34
6.586,-0.31,-0.56,0.85,1.06
6.596,0.06,-0.68,0.37,0.77
6.606,0.60,-0.20,0.26,0.69
6.616,0.17,0.12,-0.43,0.48
6.626,-0.29,-0.27,-0.82,0.90
6.636,1.87,0.75,1.40,2.45
6.646,1.33,1.47,0.33,2.01
6.657,0.36,-0.12,-1.13,1.20
6.667,-0.75,0.40,0.17,0.87
6.677,-1.04,-0.32,-0.61,1.25
6.687,-1.29,-1.16,0.98,1.99
6.697,-0.48,1.52,-1.43,2.14
6.707,-1.27,-2.36,1.23,2.95
6.717,1.03,2.50,-1.64,3.16
6.727,0.07,-1.52,0.81,1.72
6.737,0.31,-0.14,-0.16,0.38
6.747,0.28,0.10,0.35,0.46
6.757,0.11,-0.34,0.09,0.37
6.767,1.14,0.95,0.11,1.49
6.778,1.06,0.22,-0.25,1.11
6.788,0.71,0.59,-0.42,1.02
6.798,-0.40,0.06,0.47,0.62
6.808,-1.65,-0.83,0.06,1.84
6.818,-0.97,0.67,-0.26,1.20
6.828,-1.32,-0.08,-1.19,1.78
6.838,-0.43,-0.02,0.38,0.58
6.848,1.08,0.81,-0.06,1.35
6.858,0.14,-1.45,0.30,1.48
6.868,0.80,0.26,-0.07,0.85
6.878,-0.51,-0.88,-0.37,1.08
6.889,0.18,-0.16,0.52,0.57
6.899,1.43,1.27,0.79,2.07
6.909,0.96,0.60,-0.86,1.43
6.919,0.25,1.27,-0.32,1.34
6.929,-0.37,0.09,0.10,0.39
6.939,-1.04,-0.77,-0.34,1.34
6.949,-2.22,-1.12,0.39,2.52
6.959,-0.30,0.63,-0.11,0.71
6.969,0.08,-0.12,-0.52,0.54
6.979,-0.53,-0.09,-0.36,0.65
6.989,2.13,0.48,0.58,2.26
6.999,-0.40,-0.33,0.21,0.56
7.009,-0.66,-0.65,-0.60,1.10
7.020,0.13,-0.75,0.65,1.00
7.030,1.32,0.87,0.18,1.59
7.040,1.25,1.03,-0.47,1.69
7.050,0.36,0.53,0.09,0.65
7.060,0.29,0.78,-0.11,0.84
7.070,-1.78,-1.03,0.29,2.07
7.080,-0.98,-0.37,-0.73,1.28
7.090,-1.03,-0.98,0.02,1.43
7.100,-0.83,0.11,-0.65,1.06
7.110,-0.01,0.61,0.69,0.92
7.120,0.70,0.48,-0.57,1.02
7.131,0.38,-0.15,-0.25,0.48
7.141,0.54,-0.34,0.53,0.83
7.151,0.37,-0.76,0.08,0.85
7.161,1.01,0.10,1.01,1.43
7.171,0.75,0.77,-1.13,1.56
7.181,-0.32,0.31,0.12,0.46
7.191,0.57,1.78,-0.07,1.87
7.201,-1.09,-1.51,-0.00,1.86
7.211,-1.60,-0.50,-0.41,1.72
7.221,-0.46,0.87,0.25,1.01
7.231,-0.83,-1.09,-1.40,1.96
7.241,0.02,-0.17,0.89,0.90
7.252,0.98,0.48,0.29,1.13
7.262,0.19,-0.36,-0.76,0.87
7.272,-0.25,0.27,0.36,0.52
7.282,0.84,-0.35,-0.14,0.92
7.292,1.00,0.34,1.25,1.64
7.302,2.01,1.02,-1.26,2.58
7.312,-1.24,-1.61,0.35,2.06
7.322,-0.14,1.90,-0.31,1.93
7.332,-1.07,-1.13,0.53,1.65
7.342,-0.99,0.75,-0.88,1.52
7.352,-0.93,-0.11,-0.06,0.94
7.362,-0.01,0.25,-1.10,1.12
7.373,0.02,-0.47,1.47,1.55
7.383,0.90,-0.41,-0.60,1.16
7.393,0.16,-0.77,0.15,0.80
7.403,-0.36,0.19,0.45,0.61
7.413,1.01,0.21,-0.82,1.32
7.423,0.78,0.98,1.31,1.81
7.433,1.42,0.79,-1.13,1.98
7.443,-0.02,0.07,-0.10,0.12
7.453,-0.72,-0.11,0.73,1.04
7.463,-1.83,-0.93,-0.65,2.15
7.473,-1.27,0.55,-0.03,1.38
7.483,-0.63,0.21,-0.97,1.17
7.494,0.26,-0.05,-0.02,0.27
7.504,0.76,0.21,0.67,1.04
7.514,1.01,-0.34,-0.13,1.07
7.524,-1.10,-1.27,-0.49,1.75
7.534,-0.59,-0.28,0.33,0.73
7.544,1.27,0.58,0.79,1.60
7.554,1.69,0.43,0.08,1.74
7.564,1.18,1.58,-0.67,2.09
7.574,0.22,-0.25,-0.44,0.55
7.584,-1.66,0.00,0.22,1.68
7.594,-1.41,-0.46,-0.37,1.53
7.605,-2.31,-1.27,1.21,2.90
7.615,1.19,2.18,-2.17,3.30
7.625,0.24,-1.73,0.91,1.97
7.635,0.70,1.25,-0.38,1.48
7.645,-0.24,-0.63,0.45,0.81
7.655,0.07,-0.24,-0.49,0.55
7.665,-0.74,-0.85,-0.02,1.13
7.675,0.55,-0.26,0.93,1.12
7.685,2.26,1.34,-0.25,2.63
7.695,0.89,0.67,0.01,1.11
7.705,-0.08,0.66,-0.46,0.80
7.715,-0.83,0.11,-0.28,0.89
7.725,-2.00,-0.30,0.52,2.08
7.736,-1.56,0.03,-0.98,1.84
7.746,-0.57,-0.66,-0.32,0.93
7.756,1.17,0.39,0.31,1.27
7.766,0.73,-0.50,-0.07,0.89
7.776,0.14,-0.22,0.41,0.49
7.786,0.00,-0.43,-0.28,0.52
7.796,-0.56,-0.61,-0.33,0.89
7.806,0.45,-0.21,0.49,0.70
7.816,1.14,0.90,0.35,1.50
7.826,0.86,0.35,-0.64,1.13
7.836,0.91,0.96,-0.07,1.33
7.847,-0.74,0.49,0.45,1.00
7.857,-2.40,-0.14,-0.38,2.44
7.867,-1.01,0.59,-0.86,1.45
7.877,-0.51,-1.05,-0.48,1.26
7.887,0.63,-0.02,0.61,0.88
7.897,0.53,-0.97,0.72,1.32
7.907,0.34,0.35,-0.63,0.80
7.917,-0.58,-1.17,-0.17,1.32
7.927,0.35,0.35,-0.23,0.54
7.937,1.66,1.20,1.29,2.42
7.947,0.88,0.14,-0.95,1.30
7.958,0.07,0.54,-0.15,0.56
7.967,-0.12,0.54,0.74,0.92
7.978,-0.60,0.12,-0.88,1.07
7.988,-1.82,-0.36,0.69,1.98
7.998,-0.88,0.34,-1.11,1.45
8.008,-0.23,-0.95,-0.76,1.24
8.018,0.89,0.44,0.50,1.11
8.028,-0.04,-1.81,0.85,2.00
8.038,-0.31,0.40,-0.14,0.52
8.048,-0.16,-0.32,-0.72,0.81
8.058,0.20,0.02,-0.07,0.21
8.068,1.82,1.70,0.86,2.63
8.079,1.13,0.08,0.02,1.14
8.089,1.02,1.13,-0.62,1.65
8.099,-1.31,-0.03,0.06,1.32
8.109,-0.63,-0.65,0.16,0.92
8.119,-1.73,0.59,-0.30,1.85
8.129,-1.44,-0.95,-0.71,1.87
8.139,0.34,-0.50,-0.31,0.68
8.149,0.23,0.82,0.00,0.86
8.159,-0.15,-1.57,1.36,2.08
8.169,1.06,0.66,-0.98,1.59
8.179,0.42,-0.57,0.27,0.76
8.190,0.13,0.38,0.53,0.66
8.199,1.45,1.00,1.30,2.19
8.210,0.28,0.81,0.23,0.89
8.220,0.46,0.29,-1.10,1.23
8.230,-0.74,0.10,-1.10,1.33
8.240,-0.13,-0.55,-1.04,1.18
8.250,-1.62,-1.16,-0.19,2.00
8.260,-0.61,0.49,0.27,0.82
8.270,-1.25,-0.16,-0.53,1.37
8.280,1.00,0.58,-0.03,1.16
8.290,0.31,0.52,-0.05,0.61
8.300,0.40,-0.57,1.14,1.34
