time,ax,ay,az,atotal
0.000,-1.73,-0.21,2.28,2.87
0.010,-2.70,-0.76,2.77,3.95
0.020,-0.62,-0.15,1.56,1.69
0.030,0.30,0.33,-0.26,0.51
0.040,0.68,-0.75,-3.22,3.38
0.050,0.90,0.25,-0.68,1.16
0.060,0.52,0.09,1.16,1.27
0.070,-0.76,-1.35,1.12,1.91
0.081,-0.56,0.13,1.14,1.28
0.091,1.61,1.10,-0.51,2.01
0.101,1.25,1.37,-2.01,2.73
0.111,0.66,0.79,0.11,1.03
0.121,-0.37,0.01,0.51,0.63
0.131,-2.00,-0.84,0.72,2.28
0.141,-1.79,-0.54,-0.21,1.88
0.151,-0.82,-0.27,-1.70,1.90
0.161,-0.21,0.29,0.71,0.80
0.171,0.99,0.66,-0.48,1.29
0.181,0.77,-0.61,0.72,1.22
0.191,0.25,0.52,-0.09,0.58
0.202,-0.86,-1.50,-0.43,1.78
0.212,-0.06,-0.04,0.06,0.09
0.222,1.13,0.23,0.81,1.41
0.232,1.12,0.80,-0.29,1.41
0.242,0.62,1.16,-0.26,1.34
0.252,0.04,0.53,-0.07,0.54
0.262,-1.58,-0.22,-0.43,1.65
0.272,-2.16,-0.77,0.16,2.30
0.282,-0.36,0.10,-0.93,1.00
0.292,-0.65,-0.78,0.44,1.10
0.303,0.82,0.43,0.26,0.96
0.312,0.72,-0.12,-0.26,0.78
0.323,0.07,0.28,-0.23,0.37
0.333,-0.37,-0.62,-0.15,0.73
0.343,-0.12,-0.47,0.20,0.53
0.353,1.37,0.38,0.95,1.71
0.363,1.08,0.37,-0.43,1.22
0.373,0.10,0.62,-0.44,0.76
0.383,-0.00,0.76,-0.19,0.78
0.393,-1.54,0.52,0.35,1.66
0.403,-1.96,-0.06,-0.47,2.01
0.413,-0.29,-0.57,-0.98,1.18
0.423,0.18,0.09,0.30,0.36
0.434,0.61,-0.93,0.39,1.18
0.444,0.25,-0.51,0.23,0.61
0.454,-0.57,-0.16,-0.22,0.63
0.464,-0.03,0.04,-0.55,0.55
0.474,0.45,0.40,0.49,0.78
0.484,1.46,0.64,0.44,1.66
0.494,1.33,0.84,-0.53,1.66
0.504,0.09,0.30,-0.02,0.31
0.514,-1.36,-0.48,-0.06,1.44
0.524,-1.84,-0.29,-0.12,1.87
0.535,-1.39,0.55,-0.34,1.53
0.544,-0.35,-0.22,-0.65,0.77
0.555,0.34,-0.20,0.10,0.41
0.565,1.17,0.17,0.45,1.27
0.575,0.35,-0.71,-0.13,0.80
0.585,-1.12,-0.63,-0.13,1.30
0.595,-0.56,-0.53,-0.07,0.78
0.605,0.48,0.46,0.00,0.67
0.615,1.54,1.07,0.99,2.13
0.625,1.56,0.81,-0.98,2.01
0.635,0.52,0.56,-0.40,0.87
0.645,-0.57,0.47,0.68,1.00
0.655,-3.13,-0.99,-0.24,3.29
0.666,-2.04,-0.43,-0.56,2.15
0.675,0.66,1.14,-0.56,1.43
0.686,0.56,-0.70,-0.06,0.90
0.696,0.94,-0.16,0.56,1.11
0.706,0.66,-0.22,0.18,0.72
0.716,-0.69,-0.99,-0.58,1.34
0.726,-1.21,-0.73,0.08,1.42
0.736,0.25,0.14,0.39,0.48
0.746,1.86,1.42,0.54,2.40
0.756,1.47,1.30,-0.73,2.10
0.766,0.34,0.42,-0.56,0.78
0.776,-0.68,0.62,0.63,1.12
0.787,-3.05,-0.28,-0.15,3.07
0.797,-1.62,-1.08,-1.05,2.21
0.807,0.06,0.14,0.01,0.16
0.817,0.70,-0.39,0.14,0.81
0.827,1.15,-0.50,0.31,1.29
0.837,0.42,0.17,0.43,0.63
0.847,-0.65,-0.56,-0.91,1.25
0.857,-0.62,-0.21,0.03,0.65
0.867,0.42,0.43,0.69,0.92
0.877,1.43,0.67,0.01,1.58
0.887,1.67,1.01,-0.31,1.97
0.897,0.28,0.61,-0.17,0.69
0.908,-1.81,-0.32,0.24,1.85
0.918,-2.27,0.70,-0.37,2.40
0.928,-1.60,-1.28,-1.22,2.38
0.938,0.10,0.07,0.49,0.51
0.948,1.11,-0.15,0.22,1.14
0.958,0.85,-0.78,0.10,1.15
0.968,0.40,0.74,0.27,0.88
0.978,-0.89,-0.93,-0.62,1.43
0.988,-0.54,0.16,-0.33,0.65
0.998,0.94,0.25,0.80,1.26
1.008,1.11,0.39,0.30,1.22
1.019,0.85,0.76,-0.32,1.19
1.029,0.39,0.63,-0.52,0.90
1.039,-1.44,0.29,0.33,1.50
1.049,-2.37,-0.10,-0.19,2.38
1.059,-0.99,-0.04,-1.08,1.47
1.069,0.16,-0.34,0.21,0.43
1.079,0.83,-0.40,0.01,0.92
1.089,0.44,-0.69,0.65,1.04
1.099,-0.13,-0.27,-0.16,0.34
1.109,-0.37,-0.15,-0.56,0.68
1.119,-0.10,-0.08,-0.06,0.14
1.129,0.90,0.57,0.79,1.33
1.139,1.76,0.99,-0.07,2.02
1.150,0.69,0.43,-0.58,1.00
1.160,-0.66,0.25,0.23,0.74
1.170,-1.43,-0.27,-0.04,1.45
1.180,-2.07,0.04,-0.21,2.08
1.190,-0.72,0.18,-0.64,0.98
1.200,0.39,-0.29,-0.60,0.77
1.210,0.70,0.03,0.76,1.03
1.220,0.61,-0.42,0.11,0.75
1.230,-0.75,-0.98,-0.26,1.26
1.240,-0.59,-0.18,-0.03,0.62
1.250,0.21,-0.15,-0.22,0.34
1.260,1.44,0.87,0.97,1.95
1.271,1.54,1.07,-0.32,1.90
1.281,0.44,0.28,-0.81,0.96
1.291,-0.06,0.60,0.56,0.82
1.301,-1.67,-0.36,0.09,1.71
1.311,-2.83,-0.59,-0.63,2.95
1.321,-0.35,0.34,-0.42,0.64
1.331,0.48,-0.10,-0.52,0.71
1.341,0.70,-0.36,0.56,0.97
1.351,0.76,-0.11,0.53,0.94
1.361,-0.14,-0.61,-0.52,0.81
1.371,-0.78,-0.29,-0.19,0.85
1.381,-0.08,-0.09,0.15,0.19
1.392,1.51,0.98,0.87,2.00
1.402,1.30,0.93,-0.70,1.75
1.412,0.25,0.14,-0.38,0.47
1.422,-0.03,0.78,0.43,0.89
1.432,-1.86,-0.26,0.17,1.88
1.442,-2.62,-0.67,-0.83,2.83
1.452,-0.45,0.05,-0.88,0.99
1.462,0.75,0.31,0.41,0.91
1.472,0.70,-0.47,0.29,0.89
1.482,0.54,-0.36,0.43,0.78
1.492,0.15,-0.07,-0.41,0.44
1.503,-0.56,-0.44,-0.43,0.84
1.513,-0.36,-0.21,0.45,0.61
1.523,1.22,0.76,0.64,1.57
1.533,1.41,0.78,-0.62,1.73
1.543,0.98,1.10,-0.02,1.48
1.553,-0.87,0.16,0.19,0.91
1.563,-1.98,-0.04,-0.33,2.01
1.573,-1.92,0.01,-0.54,1.99
1.583,-0.76,-0.59,-0.75,1.22
1.593,0.67,0.13,0.68,0.96
1.603,1.13,-0.49,-0.03,1.23
1.614,0.81,0.02,0.50,0.95
1.624,-0.28,-0.40,-0.64,0.81
1.634,-1.25,-0.77,-0.44,1.53
1.644,-0.14,0.39,0.71,0.82
1.654,1.22,0.37,0.44,1.35
1.664,1.28,0.80,-0.50,1.59
1.674,0.88,0.61,-0.34,1.12
1.684,-0.38,0.26,0.20,0.50
1.694,-1.98,-0.11,0.16,1.99
1.704,-2.18,-0.42,-0.42,2.26
1.714,-0.47,-0.19,-1.07,1.18
1.724,0.43,-0.02,0.28,0.52
1.735,0.70,-0.49,0.40,0.94
1.744,0.52,-0.31,0.25,0.65
1.755,-0.01,-0.01,-0.09,0.09
1.765,-0.67,-0.45,-0.66,1.04
1.775,0.03,-0.14,0.36,0.38
1.785,1.67,0.86,0.80,2.05
1.795,1.13,0.49,-0.66,1.40
1.805,0.28,0.72,-0.01,0.77
1.815,-0.64,0.41,-0.03,0.76
1.825,-2.10,-0.20,-0.01,2.11
1.835,-1.74,0.12,-0.61,1.84
1.845,-0.34,-0.91,-0.73,1.22
1.856,0.69,0.35,0.54,0.95
1.866,0.82,-0.67,0.23,1.09
1.876,0.08,-0.55,0.25,0.61
1.886,-0.65,0.25,-0.22,0.74
1.896,-0.04,-0.25,-0.68,0.73
1.906,0.63,0.64,0.87,1.25
1.916,1.49,0.59,0.16,1.61
1.926,1.15,0.63,-0.74,1.51
1.936,0.37,0.48,0.52,0.80
1.946,-1.73,-0.79,-0.30,1.92
1.956,-2.49,-0.21,0.10,2.50
1.966,-1.00,0.54,-0.70,1.34
1.977,-0.32,-0.51,-0.94,1.12
1.987,0.90,0.29,0.85,1.27
1.997,1.31,-0.33,0.17,1.37
2.007,0.15,-0.24,0.16,0.33
2.017,-1.05,-0.36,-0.38,1.17
2.027,-0.36,-0.51,-0.10,0.63
2.037,0.90,1.21,0.67,1.65
2.047,1.48,0.74,-0.10,1.66
2.057,0.93,0.50,-0.74,1.29
2.067,0.15,0.80,0.57,0.99
2.077,-1.58,-0.81,-0.23,1.79
2.088,-2.52,-0.75,-0.30,2.65
2.098,-0.91,0.43,-0.34,1.06
2.108,0.16,-0.01,-0.47,0.50
2.118,0.69,0.23,0.34,0.80
2.128,1.04,-0.00,0.20,1.06
2.138,-0.01,-0.13,-0.20,0.24
2.148,-0.83,-0.92,-0.28,1.28
2.158,-0.72,-1.08,0.07,1.30
2.168,1.12,0.88,1.05,1.77
2.178,2.10,1.34,-0.15,2.49
2.188,0.98,1.08,-0.93,1.73
2.199,-0.09,0.70,0.00,0.70
2.208,-1.67,-0.35,0.03,1.71
2.219,-2.24,-0.84,0.11,2.39
2.229,-1.11,-0.79,-0.52,1.46
2.239,0.15,0.23,-0.17,0.32
2.249,0.57,0.01,0.12,0.58
2.259,1.08,0.47,0.05,1.18
2.269,0.34,0.22,0.03,0.40
2.279,-0.86,-0.65,-0.50,1.19
2.289,-0.38,-0.73,0.11,0.83
2.299,0.50,-0.45,0.76,1.02
2.309,1.11,0.87,0.38,1.46
2.319,1.18,1.14,-0.74,1.80
2.329,0.10,0.87,-0.40,0.96
2.340,-1.02,0.16,0.14,1.04
2.350,-1.90,-0.80,-0.15,2.07
2.360,-1.21,-0.41,-0.31,1.32
2.370,-0.26,-0.36,-0.11,0.45
2.380,-0.02,-0.72,0.03,0.72
2.390,0.89,0.49,0.17,1.03
2.400,0.57,0.17,-0.05,0.60
2.410,-0.11,-0.20,-0.36,0.43
2.420,-0.47,-0.34,0.14,0.59
2.430,0.75,-0.13,0.52,0.92
2.440,1.27,0.56,0.05,1.39
2.451,0.28,0.18,-0.35,0.49
2.461,0.26,0.73,-0.08,0.78
2.471,-1.06,0.51,0.14,1.18
2.481,-2.34,-0.14,-0.39,2.37
2.491,-0.96,0.06,-0.96,1.36
2.501,0.18,-0.00,0.12,0.21
2.511,0.90,-0.61,0.26,1.12
2.521,0.55,-0.69,0.56,1.05
2.531,-0.08,0.18,0.01,0.20
2.541,-0.55,-0.26,-0.79,1.00
2.551,-0.41,0.15,0.13,0.45
2.561,1.15,0.39,0.80,1.46
2.572,1.80,0.86,-0.34,2.02
2.582,1.01,0.59,-0.20,1.18
2.592,-0.95,-0.45,0.10,1.05
2.602,-2.30,-0.19,-0.08,2.31
2.612,-1.73,0.96,-0.26,2.00
2.622,-0.79,-0.30,-0.99,1.31
2.632,0.65,0.15,0.24,0.71
2.642,1.56,0.00,0.20,1.57
2.652,0.43,-0.81,0.22,0.94
2.662,-0.97,-0.93,0.19,1.35
2.673,-0.74,-0.70,-0.58,1.17
2.683,0.07,0.36,0.09,0.37
2.693,1.23,0.89,0.80,1.72
2.703,1.71,0.85,-0.50,1.97
2.713,0.82,0.85,-0.32,1.23
2.723,-0.40,0.48,0.19,0.66
2.733,-2.63,-0.67,-0.11,2.71
2.743,-2.55,-0.43,-0.38,2.62
2.753,-0.01,0.32,-0.61,0.69
2.763,0.74,0.04,0.18,0.76
2.773,1.18,-0.12,0.32,1.23
2.783,0.59,-0.37,0.07,0.70
2.793,-0.36,-0.38,-0.22,0.57
2.803,-1.05,-0.96,-0.28,1.46
2.814,-0.63,-0.74,0.23,1.00
2.824,1.47,1.26,0.82,2.10
2.834,2.29,1.35,0.09,2.66
2.844,0.90,0.89,-1.24,1.77
2.854,-0.48,0.49,0.22,0.72
2.864,-2.33,0.06,0.34,2.36
2.874,-2.77,-0.63,-0.69,2.92
2.884,-0.53,-0.62,-0.37,0.90
2.894,0.67,-0.03,-0.13,0.68
2.904,1.40,-0.47,0.37,1.53
2.914,1.16,0.30,0.46,1.29
2.925,-0.50,-0.56,-0.29,0.81
2.935,-0.80,-0.48,-0.79,1.22
2.945,-1.08,-0.62,0.39,1.31
2.955,0.73,0.55,0.96,1.32
2.965,2.18,1.06,-0.25,2.44
2.975,1.17,0.99,-0.81,1.73
2.985,-0.17,0.76,0.46,0.91
2.995,-2.32,0.16,-0.25,2.34
3.005,-2.62,-0.09,-0.75,2.72
3.015,-0.80,-0.88,-0.21,1.21
3.025,0.40,-0.34,0.08,0.53
3.036,1.15,-0.61,0.31,1.34
3.045,1.07,-0.18,0.31,1.13
3.056,-0.22,-0.28,-0.19,0.40
3.066,-0.87,-0.53,-0.56,1.16
3.076,0.19,0.29,0.22,0.41
3.086,0.84,0.50,0.88,1.31
3.096,1.05,0.99,-0.47,1.52
3.106,0.72,0.28,-0.67,1.02
3.116,0.04,0.90,0.50,1.02
3.126,-2.06,0.26,0.33,2.10
3.136,-2.23,-0.44,-1.26,2.60
3.146,-0.24,0.11,-0.35,0.44
3.156,0.36,-0.73,-0.06,0.82
3.167,0.76,-0.75,0.70,1.28
3.177,0.54,-0.19,0.66,0.87
3.187,-0.13,-0.47,-0.90,1.03
3.197,-0.58,-0.03,-0.22,0.62
3.207,0.23,0.58,0.47,0.78
3.217,1.56,0.86,0.41,1.83
3.227,1.43,0.86,-0.63,1.78
3.237,0.13,-0.00,0.09,0.16
3.247,-0.93,0.20,0.15,0.96
3.257,-2.11,0.18,0.13,2.12
3.267,-1.93,-0.29,-1.24,2.31
3.277,-0.38,-0.34,-0.53,0.74
3.288,0.88,0.06,0.68,1.12
3.298,1.04,-0.76,0.08,1.29
3.308,0.55,-0.39,0.64,0.92
3.318,-0.28,0.14,-0.66,0.73
3.328,-0.78,-0.49,-0.87,1.27
3.338,-0.06,0.58,1.93,2.02
3.348,1.90,1.68,-1.01,2.73
3.358,0.60,-1.25,0.02,1.38
3.368,1.38,1.91,-0.34,2.38
3.378,-1.89,-1.47,0.49,2.45
3.388,-2.37,-0.12,-0.35,2.40
3.399,-1.50,0.68,-0.33,1.68
3.409,-0.23,-0.40,-0.86,0.97
3.419,1.07,0.86,0.29,1.40
3.429,1.26,-0.52,0.36,1.41
3.439,0.45,-0.40,0.02,0.60
3.449,-0.97,-0.83,0.17,1.28
3.459,-1.22,-1.13,-0.89,1.89
3.469,1.18,0.76,1.39,1.97
3.479,2.25,1.18,-0.33,2.57
3.489,0.98,1.11,-0.48,1.56
3.499,-0.05,0.89,0.31,0.94
3.510,-1.61,-0.06,-0.48,1.68
3.520,-2.69,-0.19,-0.08,2.70
3.530,-1.25,-0.54,-0.75,1.55
3.540,0.35,-0.67,0.04,0.76
3.550,1.16,0.13,0.40,1.24
3.560,0.93,-0.46,0.44,1.13
3.570,-0.00,0.16,-0.36,0.39
3.580,-0.72,-0.29,-0.28,0.82
3.590,-0.62,-0.36,-0.28,0.77
3.600,0.22,0.34,1.00,1.08
3.610,1.80,0.74,-0.01,1.95
3.620,1.26,0.62,-0.74,1.58
3.630,0.33,0.59,0.37,0.77
3.640,-1.30,-0.17,-0.03,1.31
3.651,-2.86,0.11,-0.32,2.88
3.661,-1.55,-0.39,-0.89,1.83
3.671,0.00,-0.34,-0.07,0.35
3.681,0.94,-0.35,0.32,1.05
3.691,1.45,-0.39,0.28,1.52
3.701,0.54,-0.09,0.41,0.69
3.711,-0.93,-0.44,-0.84,1.33
3.721,-0.60,-0.08,-0.07,0.61
3.731,0.75,0.67,0.86,1.32
3.741,1.00,0.64,-0.34,1.23
3.752,1.19,0.57,-0.43,1.39
3.762,0.45,0.51,0.45,0.81
3.772,-1.51,-0.08,-0.11,1.51
3.782,-2.47,-0.21,-0.25,2.49
3.792,-1.09,-0.10,-0.86,1.39
3.802,-0.06,-0.20,-0.40,0.45
3.812,0.75,-0.42,0.68,1.09
3.822,1.18,0.17,0.70,1.39
3.832,-0.00,-0.17,-0.42,0.45
3.842,-0.74,-0.50,-0.64,1.10
3.852,-0.24,-0.17,0.20,0.36
3.862,1.33,0.47,0.71,1.58
3.873,1.60,0.56,-0.04,1.70
3.883,0.61,0.41,-0.24,0.77
3.893,-0.62,0.76,-0.14,1.00
3.903,-1.97,0.01,-0.06,1.97
3.913,-2.15,-0.30,-0.71,2.28
3.923,-0.62,-0.37,-0.45,0.85
3.933,0.68,-0.23,0.34,0.79
3.943,1.07,-0.33,0.13,1.13
3.953,0.43,-0.45,0.43,0.76
3.963,-0.39,0.14,-0.34,0.54
3.973,-0.60,-0.22,-0.53,0.83
3.983,0.02,0.26,0.62,0.67
3.994,1.37,0.52,0.32,1.50
4.004,1.54,0.79,-0.49,1.80
4.014,0.52,0.54,0.16,0.77
4.024,-1.16,-0.30,-0.11,1.20
4.034,-2.12,-0.42,0.06,2.16
4.044,-1.72,0.34,-0.57,1.84
4.054,-0.46,-0.04,-0.77,0.90
4.064,0.67,0.10,0.34,0.76
4.074,1.03,-0.22,0.21,1.07
4.084,0.49,-0.27,0.22,0.60
4.094,-0.66,-0.84,-0.28,1.10
4.104,-0.83,-0.64,-0.22,1.08
4.114,0.96,0.80,0.85,1.51
4.125,1.69,0.94,0.06,1.93
4.135,0.95,0.99,-0.70,1.54
4.145,0.39,0.73,0.13,0.84
4.155,-1.00,-0.04,-0.08,1.00
4.165,-2.70,-1.39,0.11,3.04
4.175,-1.38,0.14,-0.56,1.49
4.185,0.09,0.11,-0.36,0.39
4.195,0.69,0.40,0.14,0.81
4.205,0.97,-0.18,0.20,1.01
4.215,0.39,0.23,-0.01,0.45
4.225,-0.70,-0.54,-0.18,0.91
4.236,-0.91,-1.20,-0.34,1.54
4.246,-0.37,-0.35,0.87,1.00
4.256,2.27,1.32,0.49,2.67
4.266,1.45,1.02,-0.80,1.95
4.276,0.56,0.82,-0.23,1.02
4.286,-0.78,0.19,0.01,0.80
4.296,-2.48,-0.81,0.07,2.61
4.306,-1.79,-0.40,-0.29,1.86
4.316,-0.65,-0.54,-0.57,1.02
4.326,0.50,0.34,0.08,0.61
4.336,1.35,0.28,0.21,1.39
4.347,0.84,-0.06,0.11,0.85
4.357,-0.54,-0.29,-0.21,0.65
4.366,-0.64,-0.79,-0.26,1.05
4.377,0.11,-0.57,0.35,0.68
4.387,0.90,0.63,0.79,1.35
4.397,1.40,1.07,-0.51,1.84
4.407,0.44,0.87,-0.58,1.14
4.417,-0.37,0.36,0.10,0.53
4.427,-1.93,-0.72,0.10,2.06
4.437,-1.70,-0.27,-0.20,1.73
4.447,-0.19,-0.33,-0.79,0.88
4.457,-0.40,-0.86,0.05,0.95
4.467,0.83,0.78,0.79,1.38
4.477,0.55,-0.25,-0.38,0.71
4.488,-0.11,0.16,-0.42,0.47
4.498,-0.05,-0.01,0.26,0.27
4.508,0.83,-0.11,0.44,0.95
4.518,1.53,0.66,0.22,1.68
4.528,0.22,-0.17,-0.68,0.73
4.538,-0.40,0.52,0.13,0.67
4.548,-0.86,0.56,0.56,1.17
4.558,-2.07,-0.32,-0.89,2.27
4.568,-0.93,0.29,-0.68,1.19
4.578,0.36,0.18,-0.20,0.45
4.589,0.67,-0.63,0.34,0.98
4.599,0.46,-0.43,0.91,1.11
4.609,-0.06,-0.30,-0.31,0.44
4.619,-0.58,-0.25,-0.69,0.94
4.629,-0.33,0.12,-0.13,0.38
4.639,0.73,0.04,0.48,0.88
4.649,1.91,0.85,0.85,2.26
4.659,1.03,0.85,-0.54,1.44
4.669,-0.69,-0.33,-0.41,0.87
4.679,-1.88,-0.48,-0.02,1.94
4.689,-1.98,0.57,0.03,2.06
4.700,-0.85,0.06,-0.78,1.15
4.709,0.28,0.18,0.01,0.34
4.720,1.20,0.45,-0.01,1.29
4.730,0.89,-0.59,0.21,1.09
4.740,-0.45,-0.52,0.12,0.70
4.750,-1.34,-1.45,-0.26,1.99
4.760,0.33,0.10,-0.01,0.35
4.770,1.05,0.76,0.81,1.53
4.780,1.63,0.83,-0.18,1.84
4.790,0.99,1.07,-0.74,1.64
4.800,-0.24,0.82,0.29,0.91
4.810,-1.99,-0.20,-0.06,2.00
4.821,-2.53,-0.39,-0.33,2.58
4.830,-0.64,-0.41,-0.69,1.02
4.841,0.71,-0.23,0.01,0.75
4.851,0.94,-0.08,0.60,1.12
4.861,0.64,-0.38,0.00,0.75
4.871,-0.14,-0.25,-0.10,0.30
4.881,-1.11,-0.70,-0.67,1.47
4.891,-0.79,-0.24,0.33,0.89
4.901,0.60,0.19,0.56,0.84
4.911,1.90,1.14,0.29,2.23
4.921,1.54,1.11,-0.58,1.98
4.931,0.17,0.10,-0.53,0.57
4.942,-1.38,0.38,0.67,1.58
4.952,-3.06,-0.18,-0.32,3.08
4.962,-1.47,-0.78,-0.88,1.88
4.972,0.43,0.24,-0.08,0.50
4.982,0.94,-0.64,0.03,1.13
4.992,1.35,-0.35,0.65,1.54
5.002,0.03,-0.14,0.19,0.24
5.012,-0.40,-0.59,-0.66,0.97
5.022,-0.87,-0.37,-0.36,1.02
5.032,0.16,0.56,1.15,1.29
5.042,1.48,0.89,-0.16,1.73
5.052,1.15,0.46,-0.85,1.50
5.063,0.69,0.89,0.43,1.20
5.073,-1.79,-0.01,0.25,1.81
5.083,-2.07,0.62,-0.45,2.21
5.093,-1.42,-0.98,-1.09,2.04
5.103,-0.33,-0.13,0.10,0.36
5.113,0.96,-0.25,0.34,1.05
5.123,1.06,-1.00,0.32,1.49
5.133,0.11,0.05,0.27,0.30
5.143,-0.46,-0.68,-0.76,1.12
5.153,-0.07,0.14,-0.03,0.16
5.163,1.05,0.99,0.90,1.70
5.173,0.75,0.16,-0.46,0.90
5.184,0.53,0.60,-0.42,0.91
5.194,0.47,1.11,0.66,1.38
5.204,-2.38,-0.35,-0.29,2.42
5.214,-1.78,0.47,-0.69,1.97
5.224,-0.47,-0.09,-0.65,0.81
5.234,0.37,-0.67,-0.09,0.77
5.244,0.99,-0.29,1.00,1.44
5.254,0.40,-0.88,0.13,0.98
5.264,-0.24,-0.04,-0.39,0.46
5.274,-0.58,0.00,-0.38,0.69
5.284,-0.16,-0.24,-0.00,0.29
5.294,1.40,1.07,0.94,2.00
5.305,1.56,0.73,-0.43,1.77
5.315,0.35,0.19,-0.44,0.59
5.325,-0.67,0.31,0.41,0.85
5.335,-2.12,-0.38,-0.17,2.16
5.345,-1.92,0.26,-0.74,2.07
5.355,-0.35,-0.03,-0.40,0.53
5.365,0.58,0.01,-0.03,0.58
5.375,1.04,-0.33,0.53,1.22
5.385,0.18,-1.04,0.03,1.05
5.395,-0.71,-0.79,-0.30,1.10
5.405,-0.09,0.13,0.06,0.17
5.416,0.74,0.42,0.61,1.05
5.426,1.43,1.19,-0.02,1.86
5.436,1.18,1.18,-0.67,1.80
5.446,0.18,0.87,-0.06,0.89
5.456,-1.43,-0.95,0.13,1.73
5.466,-2.03,-0.67,-0.06,2.14
5.476,-1.27,-0.23,-0.25,1.31
5.486,-0.09,-0.19,-0.62,0.65
5.496,0.72,0.47,0.27,0.90
5.506,0.71,0.13,-0.05,0.72
5.516,0.14,-0.01,0.19,0.23
5.526,-0.40,-0.26,-0.31,0.57
5.537,-1.18,-1.38,-0.31,1.84
5.547,0.45,-0.09,0.56,0.72
5.557,1.95,0.82,0.81,2.26
5.567,1.17,0.55,-0.67,1.46
5.577,0.66,1.05,-0.29,1.27
5.587,-1.24,0.38,0.11,1.30
5.597,-2.20,0.53,-0.54,2.33
5.607,-2.21,-0.89,0.32,2.41
5.617,-0.55,-0.20,-1.28,1.41
5.627,1.32,-0.66,0.66,1.62
5.637,0.80,-0.46,0.50,1.05
5.647,0.31,-0.05,-0.13,0.34
5.658,0.18,-0.54,-0.41,0.71
5.668,-0.60,-0.21,-0.23,0.68
5.678,-0.19,0.18,1.03,1.06
5.688,1.61,1.14,0.01,1.97
5.698,1.26,0.80,-0.80,1.70
5.708,0.48,0.62,-0.01,0.78
5.718,-0.98,-0.06,0.40,1.06
5.728,-2.28,0.42,-0.05,2.32
5.738,-1.74,-0.46,-1.07,2.09
5.748,-0.50,-0.68,-0.55,1.01
5.758,0.79,0.31,0.77,1.14
5.768,0.96,-1.15,0.04,1.50
5.779,0.66,0.10,0.42,0.79
5.789,-0.51,-0.27,-0.42,0.72
5.799,-0.47,-0.45,-0.54,0.85
5.809,1.07,1.20,1.09,1.94
5.819,0.96,0.44,-0.31,1.10
5.829,0.58,0.30,-0.42,0.78
5.839,0.70,1.33,0.59,1.62
5.849,-1.65,-0.89,-0.49,1.94
5.859,-2.05,-0.11,-0.14,2.05
5.869,-0.95,-0.00,-0.52,1.08
5.879,-0.31,-0.84,-0.64,1.10
5.890,0.79,0.32,1.13,1.41
5.899,0.71,-0.23,-0.04,0.75
5.910,0.01,-0.19,-0.37,0.42
5.920,-0.43,0.09,-0.22,0.49
5.930,-0.45,-0.69,-0.08,0.82
5.940,1.29,0.69,1.00,1.77
5.950,1.59,0.61,-0.21,1.72
5.960,0.42,0.29,-0.57,0.77
5.970,-0.19,0.78,0.35,0.88
5.980,-1.78,-0.22,-0.32,1.82
5.990,-2.18,-0.12,-0.18,2.19
6.000,-0.96,-0.28,-0.77,1.26
6.011,0.38,-0.44,-0.13,0.60
6.021,0.98,-0.02,0.68,1.19
6.031,0.80,-0.43,0.21,0.94
6.041,-0.27,-0.04,-0.19,0.33
6.051,-0.51,-0.05,-0.21,0.55
6.061,0.02,0.02,-0.29,0.30
6.071,0.97,0.37,1.01,1.45
6.081,1.66,0.80,-0.42,1.90
6.091,0.50,0.45,-0.09,0.68
6.101,-0.66,0.25,0.06,0.71
6.111,-1.97,-0.77,-0.24,2.13
6.122,-1.80,0.28,-0.25,1.84
6.132,-0.46,0.15,-0.61,0.78
6.142,0.44,-0.13,-0.01,0.46
6.152,0.87,0.20,0.42,0.98
6.162,0.58,-0.10,0.14,0.60
6.172,-0.40,-0.64,-0.32,0.82
6.182,-1.40,-0.90,-0.33,1.70
6.192,0.45,-0.02,0.44,0.64
6.202,1.71,0.77,0.81,2.05
6.212,1.30,0.95,-0.52,1.69
6.222,0.52,0.49,-0.58,0.92
6.232,-0.56,0.51,0.21,0.78
6.242,-2.25,-0.49,0.17,2.31
6.253,-2.31,-0.62,-0.34,2.41
6.263,-0.17,0.13,-0.75,0.78
6.273,0.85,0.48,0.10,0.98
6.283,0.71,-0.40,0.16,0.83
6.293,0.74,-0.20,0.31,0.83
6.303,-0.26,-0.43,-0.17,0.52
6.313,-0.96,-0.96,-0.49,1.45
6.323,-0.54,-0.35,0.49,0.81
6.333,1.94,1.20,0.93,2.46
6.343,1.65,1.14,-0.81,2.16
6.353,0.37,0.48,-0.52,0.79
6.363,-0.28,0.63,0.38,0.79
6.374,-2.24,-0.69,0.08,2.34
6.384,-1.90,-0.43,-0.36,1.98
6.394,-0.78,-0.46,-0.83,1.23
6.404,0.21,0.36,0.36,0.55
6.414,0.86,0.20,0.05,0.88
6.424,0.72,-0.40,0.11,0.83
6.434,0.22,0.26,-0.05,0.34
6.444,-0.34,-0.65,-0.39,0.83
6.454,0.30,-0.35,0.82,0.94
6.464,0.74,0.17,0.09,0.77
6.474,0.72,0.62,-0.39,1.03
6.484,0.50,2.02,-0.22,2.10
6.495,-0.19,0.27,-1.13,1.17
6.505,-2.19,-1.51,2.11,3.39
6.515,-0.83,1.54,-1.06,2.05
6.525,-0.45,-3.42,-0.40,3.47
6.535,-0.13,0.67,-0.31,0.75
6.545,-0.25,-0.21,0.41,0.53
6.555,0.35,0.15,-0.49,0.62
6.565,0.13,0.98,0.47,1.09
6.575,0.12,-0.56,-0.39,0.70
6.585,1.30,0.80,0.42,1.58
6.595,1.16,0.15,0.34,1.22
6.606,0.16,-0.41,-0.76,0.88
6.616,-0.31,0.28,0.58,0.71
6.626,-0.78,-0.00,-0.06,0.78
6.636,-1.61,0.13,-0.10,1.62
6.646,-1.22,0.72,-0.77,1.61
6.656,-0.08,-0.01,-0.78,0.78
6.666,0.57,0.24,0.50,0.80
6.676,0.46,-0.69,0.44,0.94
6.686,0.08,-0.82,0.09,0.83
6.696,-0.32,-0.23,-0.26,0.47
6.706,-0.19,-0.30,-0.37,0.51
6.716,0.07,0.05,0.57,0.57
6.727,1.52,1.07,0.51,1.93
6.737,1.35,0.79,-0.62,1.68
6.747,-0.02,0.80,-0.15,0.81
6.757,-1.40,-0.09,0.13,1.41
6.767,-2.09,0.05,-0.23,2.10
6.777,-1.03,-0.25,-0.42,1.14
6.787,0.24,-0.27,-0.50,0.62
6.797,0.55,-0.05,0.42,0.70
6.807,0.92,-0.41,0.30,1.05
6.817,-0.10,-0.63,-0.20,0.67
6.827,-1.06,-0.15,0.01,1.07
6.837,-0.45,-0.46,-0.49,0.81
6.848,0.43,0.16,0.13,0.48
6.858,1.55,1.11,1.19,2.25
6.868,1.46,0.43,-0.78,1.71
6.878,0.52,0.76,-0.33,0.98
6.888,-1.27,0.24,0.31,1.33
6.898,-2.85,-0.31,-0.43,2.90
6.908,-1.72,-0.25,-0.48,1.80
6.918,0.38,-0.19,-0.33,0.54
6.928,1.19,-0.04,0.31,1.23
6.938,0.86,-0.66,0.28,1.12
6.948,0.53,-0.10,0.14,0.56
6.958,-0.92,-0.75,-0.55,1.31
6.969,-1.03,-0.16,-0.09,1.05
6.979,-0.04,-0.25,0.37,0.45
6.989,1.63,0.73,0.44,1.84
6.999,2.02,1.47,-0.04,2.50
7.009,0.26,0.01,-0.91,0.94
7.019,-0.81,0.54,0.57,1.14
7.029,-2.52,0.68,0.13,2.62
7.039,-2.47,-1.19,-1.34,3.05
7.049,0.34,0.48,-0.05,0.59
7.059,0.85,-0.55,0.13,1.02
7.069,1.12,-0.69,0.50,1.41
7.080,0.36,-0.29,0.41,0.62
7.090,-0.39,-0.86,-0.70,1.17
7.100,-0.50,-0.16,-0.28,0.60
7.110,-0.05,0.13,0.87,0.88
7.120,1.18,1.09,0.14,1.61
7.130,1.50,1.01,-0.72,1.95
7.140,0.43,0.71,-0.00,0.83
7.150,-1.53,0.43,0.25,1.60
7.160,-1.80,0.44,-0.07,1.85
7.170,-1.38,-0.75,-1.43,2.13
7.180,-0.24,-0.27,0.49,0.61
7.190,0.73,-0.52,-0.02,0.90
7.200,0.69,-0.83,0.48,1.18
7.210,0.29,0.11,0.23,0.39
7.221,-0.90,-0.98,-0.78,1.54
7.231,-0.12,0.47,-0.07,0.49
7.241,1.23,0.65,0.78,1.59
7.251,1.37,0.47,0.07,1.45
7.261,0.85,1.02,-0.52,1.43
7.271,-0.25,0.39,0.36,0.59
7.281,-1.77,0.40,-0.40,1.86
7.291,-2.28,0.00,-0.29,2.30
7.301,-0.78,-0.46,-0.99,1.34
7.311,0.54,-0.44,0.30,0.75
7.322,0.75,-0.70,0.51,1.15
7.332,0.18,-0.90,0.28,0.96
7.342,0.16,0.24,-0.29,0.41
7.352,-0.19,-0.12,-0.39,0.45
7.362,-0.15,0.35,0.11,0.39
7.372,1.27,1.00,0.91,1.85
7.382,1.32,1.12,-0.57,1.82
7.392,0.22,0.24,-0.39,0.50
7.402,-0.70,-0.24,0.19,0.77
7.412,-1.22,-0.34,0.09,1.27
7.422,-1.91,-0.20,-0.04,1.92
7.432,-0.41,0.29,-0.83,0.97
7.443,0.17,0.08,-0.24,0.31
7.453,0.65,0.20,0.31,0.75
7.463,0.72,-0.29,0.24,0.81
7.473,-0.85,-0.93,-0.21,1.28
7.483,-0.55,-0.84,-0.14,1.01
7.493,0.38,-0.08,-0.05,0.40
7.503,0.88,0.39,1.00,1.39
7.513,1.73,0.94,-0.18,1.98
7.523,0.54,0.93,-0.94,1.43
7.533,-0.42,0.41,0.31,0.67
7.543,-1.72,-0.33,-0.13,1.75
7.554,-2.22,-0.59,0.01,2.29
7.564,-0.70,-0.10,-0.72,1.01
7.574,0.53,-0.28,-0.09,0.61
7.584,0.77,-0.10,0.12,0.79
7.594,0.67,-0.19,0.50,0.85
7.604,-0.08,-0.28,-0.26,0.39
7.614,-1.23,-0.78,-0.31,1.49
7.624,-0.02,-0.03,0.13,0.14
7.634,1.88,1.22,0.98,2.44
7.644,1.28,0.55,-0.73,1.57
7.654,0.79,0.59,-0.47,1.09
7.664,-0.51,0.67,0.77,1.14
7.675,-2.25,0.20,-0.22,2.27
7.684,-2.45,-0.40,-0.97,2.67
7.695,-0.49,-0.02,-0.53,0.72
7.705,0.60,-0.22,0.09,0.65
7.715,0.96,-0.74,0.56,1.33
7.725,0.71,-0.29,0.60,0.98
7.735,-0.08,-0.50,-0.60,0.78
7.745,-0.30,-0.44,-0.59,0.80
7.755,-0.15,0.01,0.82,0.84
7.765,0.89,0.78,0.44,1.26
7.775,1.20,0.98,-0.64,1.68
7.785,0.71,1.04,-0.19,1.27
7.796,-0.77,0.12,0.11,0.79
7.806,-1.70,0.00,0.12,1.71
7.816,-1.97,-0.28,-0.81,2.15
7.826,-0.54,-0.55,-0.51,0.93
7.836,0.42,-0.14,0.36,0.57
7.846,0.78,-0.53,0.19,0.97
7.856,0.62,-0.05,0.44,0.76
7.866,-0.46,-0.34,-0.40,0.70
7.876,-0.29,-0.05,-0.42,0.52
7.886,0.69,0.54,0.83,1.21
7.896,1.36,0.88,0.01,1.62
7.906,0.70,0.43,-0.45,0.94
7.917,0.33,1.01,0.12,1.07
7.927,-1.24,-0.38,-0.40,1.36
7.937,-2.10,-0.54,0.19,2.17
7.947,-1.15,-0.03,-0.60,1.29
7.957,-0.25,-0.82,-0.31,0.91
7.967,0.66,0.19,0.41,0.80
7.977,0.45,-0.33,0.13,0.57
7.987,0.35,0.28,-0.06,0.45
7.997,-0.29,-0.06,-0.33,0.45
8.007,-0.61,-0.44,-0.43,0.87
8.017,0.74,0.04,1.20,1.41
8.027,1.64,0.77,-0.01,1.82
8.038,0.44,0.18,-0.59,0.75
8.048,0.32,0.65,0.27,0.78
8.058,-0.89,0.02,-0.48,1.01
8.068,-1.97,-0.18,0.34,2.01
8.078,-1.16,0.50,-0.49,1.35
8.088,-0.43,-0.87,-0.92,1.34
8.098,0.77,0.60,0.52,1.10
8.108,0.55,-0.91,0.22,1.09
8.118,-0.22,-0.70,-0.02,0.73
8.128,-0.18,-0.03,0.08,0.20
8.138,-0.26,-0.57,-0.68,0.93
8.149,0.69,0.73,0.92,1.37
8.159,1.70,0.88,0.20,1.93
8.169,0.71,0.72,-1.08,1.48
8.179,0.01,1.02,0.42,1.11
8.189,-2.12,-0.64,0.17,2.22
8.199,-2.64,-0.64,-0.52,2.76
8.209,-0.03,-0.13,-0.30,0.32
8.219,0.76,-0.57,-0.38,1.02
8.229,0.50,-0.16,0.48,0.71
8.239,0.74,0.08,0.11,0.75
8.249,-0.45,-0.16,-0.10,0.49
8.259,-1.21,-0.18,-0.55,1.34
8.269,-0.14,-0.29,0.11,0.34
8.280,1.54,0.82,1.01,2.02
8.290,1.78,0.76,-0.54,2.01
8.300,0.77,0.09,-0.39,0.87
8.310,-0.28,0.49,0.35,0.67
8.320,-1.82,-0.58,-0.13,1.92
8.330,-2.48,-0.27,-0.23,2.50
8.340,-0.90,0.65,-0.64,1.28
8.350,0.51,0.31,-0.53,0.80
8.360,0.98,0.20,0.39,1.07
8.370,0.75,-0.46,0.48,1.00
8.380,-0.05,-0.65,-0.12,0.66
8.391,-0.66,-0.73,-0.12,0.99
8.401,-0.83,-1.12,-0.26,1.42
8.411,1.34,1.09,1.05,2.02
8.421,1.82,1.83,-0.07,2.58
8.431,0.31,0.23,-1.36,1.42
8.441,0.03,0.99,0.28,1.02
8.451,-1.36,-0.29,0.46,1.47
8.461,-2.02,-1.20,-0.41,2.38
8.471,-1.03,-0.24,-0.56,1.20
8.481,-0.27,-0.08,-0.05,0.29
8.492,0.59,0.33,0.06,0.68
8.502,0.82,-0.22,0.26,0.88
8.511,0.42,0.07,-0.28,0.51
8.522,-0.50,-0.54,-0.09,0.74
8.532,0.00,-0.38,0.16,0.41
8.542,0.73,-0.09,0.67,0.99
8.552,1.06,0.89,-0.19,1.40
8.562,0.42,0.92,-0.58,1.17
8.572,-0.11,0.68,0.00,0.69
8.582,-1.00,-0.02,-0.10,1.01
8.592,-1.51,-0.32,-0.15,1.55
8.602,-0.75,0.15,-0.87,1.16
8.612,-0.43,-0.59,-0.08,0.73
8.623,0.10,-0.22,0.30,0.39
8.633,0.49,-0.03,0.54,0.73
8.643,0.04,-0.43,-0.00,0.43
8.653,-0.77,-0.25,-0.67,1.05
8.663,0.40,-0.98,0.52,1.18
8.673,1.67,0.62,0.62,1.89
8.683,0.72,0.42,-0.25,0.88
8.693,0.75,0.68,-0.53,1.14
8.703,0.04,0.83,-0.00,0.83
8.713,-1.87,0.26,0.15,1.90
8.723,-1.97,0.23,-0.43,2.03
8.733,-0.79,-0.14,-1.03,1.30
8.743,0.34,-0.06,0.15,0.38
8.754,0.88,-1.13,0.25,1.45
8.764,0.18,-0.57,0.78,0.98
8.774,-0.18,-0.10,-0.17,0.26
8.784,-0.53,-0.26,-1.11,1.26
8.794,-0.37,0.15,0.43,0.59
8.804,1.47,0.57,0.68,1.72
8.814,1.61,0.81,-0.10,1.81
8.824,0.62,0.72,-0.36,1.02
8.834,-0.75,-0.00,-0.06,0.76
8.844,-2.23,-0.28,-0.21,2.25
8.854,-1.69,0.10,-0.16,1.70
8.865,-0.27,0.08,-0.56,0.63
8.875,0.55,-0.10,0.09,0.56
8.885,1.20,-0.01,0.13,1.21
8.895,0.23,-0.61,0.12,0.67
8.905,-1.13,-0.37,0.01,1.19
8.915,-1.01,-0.99,-0.34,1.45
8.925,0.56,0.18,-0.15,0.61
8.935,1.62,0.99,1.36,2.34
8.945,1.72,0.78,-0.74,2.02
8.955,0.62,0.27,-0.59,0.90
8.965,-0.37,0.69,0.64,1.01
8.976,-2.85,-0.37,-0.32,2.90
8.986,-2.29,-0.44,-0.54,2.39
8.996,0.01,0.18,-0.58,0.60
9.006,0.68,-0.04,0.21,0.71
9.016,1.13,-0.31,0.27,1.21
9.026,0.55,-0.40,0.14,0.70
9.036,-0.37,-0.44,-0.17,0.60
9.046,-1.18,-0.79,-0.35,1.46
9.056,-0.64,-0.46,0.24,0.83
9.066,1.81,1.57,0.90,2.56
9.076,1.84,0.90,-0.58,2.14
9.086,0.55,0.35,-0.87,1.08
9.097,0.11,0.98,0.80,1.27
9.107,-2.57,-0.10,0.09,2.58
9.117,-2.69,-0.55,-0.93,2.90
9.127,-0.06,-0.38,-0.57,0.69
9.137,0.57,-0.19,0.08,0.61
9.147,1.24,-0.12,0.83,1.50
9.157,0.44,-0.78,0.17,0.92
9.167,-0.52,-0.15,-0.60,0.81
9.177,-0.55,-0.54,-0.36,0.86
9.187,-0.16,-0.31,0.35,0.49
9.197,1.19,1.05,1.10,1.93
9.207,1.68,0.91,-0.81,2.08
9.218,0.67,1.15,-0.52,1.43
9.228,-1.17,0.54,0.45,1.37
9.238,-2.23,0.03,-0.40,2.27
9.248,-1.69,-0.41,-0.73,1.88
9.258,-0.22,-0.90,-0.12,0.94
9.268,0.36,-0.51,0.28,0.68
9.278,0.82,-0.64,0.38,1.10
9.288,0.64,-0.09,0.14,0.66
9.298,-0.41,-0.16,-0.53,0.69
9.308,-0.32,0.12,-0.18,0.38
9.318,0.83,0.85,0.63,1.35
9.328,1.04,0.71,0.23,1.28
9.339,0.98,0.73,-0.66,1.39
9.349,0.20,0.58,0.07,0.62
9.359,-1.13,-0.19,0.18,1.16
9.369,-2.02,-0.18,-0.18,2.04
9.379,-1.88,-0.50,-1.07,2.22
9.389,0.40,0.19,0.12,0.46
9.399,0.78,-0.35,0.21,0.88
9.409,0.41,-0.47,0.35,0.71
9.419,0.27,-0.11,0.05,0.30
9.429,-0.38,-0.16,-0.72,0.83
9.439,-0.87,-0.50,0.10,1.01
9.449,0.74,0.01,0.55,0.92
9.460,1.43,0.82,0.38,1.69
9.470,1.16,0.60,-0.62,1.45
9.480,0.07,0.25,-0.27,0.37
9.490,-1.04,0.21,0.42,1.14
9.500,-2.17,-0.08,-0.27,2.18
9.510,-1.30,0.17,-0.52,1.41
9.520,-0.10,-0.22,-0.72,0.76
9.530,0.63,-0.11,0.41,0.76
9.540,0.96,-0.43,0.30,1.09
9.550,-0.46,-0.83,0.19,0.97
9.560,-0.56,-0.53,-0.35,0.85
9.570,-0.04,-0.08,-0.33,0.34
9.581,0.83,0.83,1.04,1.56
9.591,1.85,0.78,-0.21,2.02
9.601,0.74,0.58,-0.80,1.24
9.611,-0.02,0.76,0.59,0.96
9.621,-1.53,-0.30,-0.17,1.57
9.631,-2.61,-0.21,-0.14,2.62
9.641,-0.91,0.22,-0.74,1.20
9.651,0.18,-0.47,-0.65,0.83
9.661,0.88,-0.04,0.86,1.23
9.671,0.66,-0.68,0.17,0.96
9.681,0.32,-0.42,0.06,0.53
9.692,-0.86,-0.64,-0.46,1.17
9.701,-0.86,-0.62,-0.36,1.12
9.712,1.50,1.36,1.56,2.56
9.722,1.66,0.88,-0.78,2.03
9.732,0.58,0.29,-0.79,1.02
9.742,0.43,1.26,0.71,1.51
9.752,-1.79,-0.43,-0.15,1.85
9.762,-2.69,0.05,-0.19,2.69
9.772,-1.21,-0.25,-1.19,1.71
9.782,0.38,-0.60,-0.03,0.71
9.792,1.09,0.20,0.75,1.34
9.802,0.39,-1.06,0.28,1.16
9.812,0.34,0.16,-0.24,0.45
9.823,-0.41,-0.46,-0.34,0.70
9.833,-0.20,0.06,-0.16,0.27
9.843,1.30,1.09,1.00,1.97
9.853,1.60,0.86,-0.22,1.83
9.863,-0.33,1.09,-0.59,1.28
9.873,-0.58,-0.33,0.25,0.71
9.883,-1.24,0.09,-0.73,1.44
9.893,-2.19,-0.83,0.54,2.40
9.903,-0.33,-0.34,-0.98,1.09
9.913,-0.01,-0.66,0.14,0.68
9.923,0.75,0.32,0.46,0.94
9.934,1.00,-0.05,-0.22,1.02
9.943,-0.21,-0.02,-0.03,0.22
9.954,-0.46,0.01,-0.25,0.52
9.964,0.11,-0.03,0.30,0.32
9.974,1.13,0.75,0.49,1.44
9.984,0.86,0.17,-0.51,1.01
9.994,0.83,0.51,-0.16,0.99
10.004,-0.41,0.01,0.14,0.43
10.014,-1.57,0.05,0.38,1.62
10.024,-2.42,-0.21,-0.86,2.57
10.034,-0.58,0.15,-1.15,1.30
10.044,0.22,-0.13,0.65,0.69
10.055,0.86,-0.03,0.22,0.88
10.065,0.80,-0.80,0.53,1.25
10.075,-0.11,-0.42,-0.32,0.54
10.085,-0.95,-0.44,-0.69,1.25
10.095,-0.26,-0.51,0.16,0.59
10.105,1.37,0.82,0.99,1.88
10.115,1.42,0.69,-0.19,1.59
10.125,0.53,0.76,-0.67,1.14
10.135,-0.20,0.86,0.21,0.91
10.145,-1.82,-0.20,-0.38,1.87
10.155,-1.77,0.03,0.25,1.79
10.165,-0.88,-0.68,-1.17,1.62
10.176,0.24,-0.58,0.08,0.63
10.186,0.82,-0.22,0.52,1.00
10.196,0.08,-1.08,0.22,1.11
10.206,-0.15,0.21,-0.13,0.29
10.216,-0.25,-0.20,-0.51,0.60
10.226,0.39,0.40,0.26,0.62
10.236,1.59,0.99,0.63,1.98
10.246,1.08,0.61,-0.57,1.36
10.256,0.21,0.63,-0.07,0.66
10.266,-1.07,-0.01,0.08,1.07
10.276,-2.36,-0.40,-0.12,2.40
10.286,-1.53,0.04,-0.66,1.67
10.297,0.04,-0.01,-0.61,0.61
10.307,0.56,-0.28,0.43,0.76
10.317,0.84,-0.44,0.26,0.98
10.327,0.64,-0.08,0.17,0.66
10.337,-0.90,-0.86,-0.40,1.31
10.347,-0.82,-0.10,-0.18,0.85
10.357,1.03,1.06,1.02,1.80
10.367,1.42,0.69,-0.56,1.67
10.377,1.01,0.64,-0.54,1.31
10.387,0.68,0.66,0.56,1.10
10.397,-1.32,-0.78,-0.17,1.54
10.407,-2.44,-0.55,0.01,2.50
10.418,-1.65,-0.02,-0.69,1.79
10.428,0.03,0.48,-0.58,0.75
10.438,0.45,0.22,0.35,0.61
10.448,1.01,-0.43,0.17,1.12
10.458,0.65,0.08,0.20,0.68
10.468,-0.51,-0.67,-0.29,0.89
10.478,-0.88,-1.15,-0.35,1.49
10.488,0.55,0.46,1.10,1.32
10.498,1.68,1.41,-0.09,2.19
10.508,0.94,0.91,-0.69,1.48
10.518,0.19,0.90,-0.11,0.93
10.529,-1.20,-0.29,-0.05,1.24
10.539,-2.19,-0.96,-0.01,2.39
10.549,-1.17,-0.47,-0.33,1.30
10.559,-0.25,-0.16,-0.50,0.59
10.569,0.48,0.41,0.58,0.85
10.579,1.05,0.16,-0.37,1.12
10.589,0.47,-0.10,-0.02,0.48
10.599,-0.43,0.08,-0.01,0.44
10.609,-0.40,-0.88,-0.09,0.97
10.619,0.27,-0.37,0.42,0.61
10.629,1.26,0.82,0.45,1.57
10.639,0.89,0.85,-0.65,1.39
10.650,0.36,0.71,-0.18,0.82
10.660,-0.37,0.56,0.36,0.76
10.670,-2.41,-0.92,-0.33,2.60
10.680,-1.25,-0.17,-0.59,1.39
10.690,-0.15,-0.58,-0.56,0.82
10.700,-0.59,-0.80,0.73,1.23
10.710,0.94,0.45,0.41,1.12
10.720,0.68,0.07,-0.64,0.94
10.730,-0.35,-0.07,-0.24,0.44
10.740,-0.33,-0.45,-0.02,0.56
10.750,0.60,-0.32,0.63,0.92
10.760,1.42,0.85,0.52,1.73
10.771,0.56,0.29,-0.63,0.89
10.781,0.02,0.68,-0.35,0.76
10.791,-0.72,0.42,0.05,0.84
10.801,-1.96,0.06,0.08,1.96
10.811,-1.39,-0.30,-0.90,1.68
10.821,0.08,0.05,-0.14,0.17
10.831,0.55,-0.40,0.03,0.68
10.841,0.39,-0.78,0.57,1.04
10.851,0.06,-0.13,0.14,0.21
10.861,-0.56,-0.44,-0.73,1.02
10.871,-0.26,0.13,-0.03,0.29
10.882,0.93,-0.01,0.55,1.08
10.892,1.81,0.92,0.30,2.05
10.902,0.84,0.68,-0.49,1.18
10.912,-0.46,0.18,-0.15,0.52
10.922,-1.77,0.41,0.16,1.82
10.932,-2.37,-0.02,-0.52,2.42
10.942,-0.44,0.13,-0.57,0.74
10.952,0.22,-0.28,-0.06,0.36
10.962,0.93,-0.48,0.22,1.07
10.972,0.97,-0.32,0.49,1.13
10.982,-0.80,-1.05,-0.22,1.34
10.992,-1.20,-0.68,-0.39,1.43
11.002,0.17,0.81,0.12,0.83
11.013,1.28,0.64,0.71,1.60
11.023,1.66,1.06,-0.47,2.03
11.033,1.11,0.61,-0.37,1.32
11.043,0.11,0.12,0.15,0.22
11.053,-2.06,0.01,0.43,2.10
11.063,-2.81,-0.75,-0.54,2.96
11.073,-0.90,-0.37,-1.14,1.49
11.083,0.32,0.81,0.46,0.98
11.093,0.84,-0.51,-0.11,0.99
11.103,1.00,-0.41,0.38,1.15
11.113,0.24,-0.08,0.13,0.28
11.123,-0.77,-1.08,-0.72,1.51
11.134,-0.79,-0.14,0.25,0.84
11.144,0.77,0.57,0.91,1.32
11.154,1.95,1.43,-0.29,2.44
11.164,0.71,0.98,-0.87,1.49
11.174,0.16,0.36,0.10,0.41
11.184,-1.80,-0.10,0.31,1.83
11.194,-2.87,-0.43,-0.34,2.92
11.204,-0.86,-0.75,-0.78,1.38
11.214,0.23,-0.17,-0.33,0.44
11.224,1.59,-0.29,0.84,1.82
11.234,1.16,-0.05,0.17,1.18
11.245,-0.62,-0.60,-0.01,0.86
11.255,-0.39,-0.05,-0.90,0.98
11.265,-0.69,-0.18,0.27,0.76
11.275,0.83,0.76,0.84,1.40
11.285,2.03,1.14,-0.35,2.36
11.295,1.15,1.00,-0.25,1.54
11.305,-0.43,0.23,0.11,0.50
11.315,-2.55,-0.38,-0.32,2.60
11.325,-2.23,-0.08,-0.72,2.34
11.335,-0.89,-1.25,-0.20,1.55
11.345,0.37,0.14,0.61,0.72
11.356,1.09,-0.26,-0.20,1.14
11.366,1.09,0.01,-0.05,1.09
11.376,-0.42,0.05,0.06,0.42
11.386,-0.62,-0.93,-0.39,1.18
11.396,-0.24,0.28,0.08,0.38
11.406,0.88,0.37,1.05,1.42
11.416,1.28,0.57,-0.59,1.52
11.426,0.66,0.40,-0.60,0.98
11.436,0.31,0.75,0.37,0.90
11.446,-2.14,0.05,0.36,2.17
11.456,-2.46,-0.04,-0.83,2.60
11.467,-0.48,-0.01,-0.80,0.93
11.477,0.50,-0.56,-0.15,0.77
11.486,0.80,-0.54,0.83,1.27
11.497,0.50,-0.56,0.53,0.92
11.507,-0.29,-0.44,-0.60,0.80
11.517,-0.43,0.15,-0.42,0.62
11.527,0.24,-0.18,0.06,0.31
11.537,1.33,0.85,0.88,1.81
11.547,1.42,1.21,-0.22,1.88
11.557,0.00,0.13,-0.60,0.61
11.567,-0.73,0.85,0.34,1.18
11.577,-1.84,-0.29,-0.24,1.88
11.587,-1.52,-0.11,-0.69,1.67
11.598,-0.43,-0.20,-0.28,0.55
11.608,0.19,-0.62,-0.01,0.64
11.618,1.05,-0.18,0.56,1.21
11.628,0.20,-1.02,-0.05,1.04
11.638,-0.70,-0.61,-0.38,1.00
11.648,-0.15,0.24,0.09,0.30
11.658,0.54,0.42,0.36,0.77
11.668,1.41,1.15,0.19,1.83
11.678,1.32,0.78,-0.56,1.63
11.688,0.41,0.34,-0.21,0.57
11.698,-0.90,-0.18,0.48,1.04
11.708,-2.59,-0.51,0.01,2.64
11.719,-1.76,-0.31,-0.98,2.04
11.729,-0.04,-0.33,-0.11,0.35
11.739,0.27,0.77,1.13,1.39
11.749,0.53,-0.01,-3.00,3.05
11.759,0.30,-2.38,2.77,3.66
11.769,1.11,2.22,-1.53,2.91
11.779,-1.38,-2.10,1.21,2.79
11.789,0.75,1.50,0.79,1.85
11.799,1.78,1.32,-1.07,2.46
11.809,0.23,0.20,-0.96,1.00
11.819,0.69,1.21,0.38,1.44
11.829,-1.54,-1.17,0.68,2.05
11.840,-2.16,-0.04,-0.14,2.17
11.850,-1.87,-1.02,-0.94,2.33
11.860,0.37,0.42,-0.83,1.01
11.870,0.98,-0.06,0.83,1.29
11.880,0.95,-0.14,0.01,0.96
11.890,0.18,0.01,0.55,0.58
11.900,-0.27,-0.08,-0.65,0.71
11.910,-0.85,-0.40,-0.53,1.08
11.920,0.52,0.33,0.97,1.14
11.930,1.72,0.73,-0.01,1.87
11.940,1.12,0.35,-0.35,1.23
11.951,0.33,0.88,0.39,1.01
11.960,-1.68,-0.44,-0.39,1.78
11.971,-2.49,0.38,-0.50,2.57
11.981,-1.34,-0.17,-0.57,1.47
11.991,-0.17,-0.42,-0.10,0.47
12.001,0.88,-0.00,0.46,0.99
12.011,1.18,-0.63,0.00,1.34
12.021,0.18,-0.10,0.21,0.29
12.031,-0.78,-0.71,-0.63,1.23
12.041,-0.69,-0.58,-0.13,0.91
12.051,0.71,0.69,1.20,1.56
12.061,1.38,0.78,-0.43,1.64
12.071,0.96,0.65,-0.65,1.33
12.082,0.60,0.79,0.01,0.99
12.092,-0.92,0.12,0.53,1.07
12.102,-2.38,-0.15,-0.18,2.39
12.112,-1.59,-0.57,-1.14,2.03
12.122,-0.09,-0.36,-0.60,0.70
12.132,0.27,-0.34,0.79,0.91
12.142,0.58,-0.84,0.30,1.06
12.152,0.51,-0.01,0.01,0.51
12.162,-0.47,-0.14,-0.41,0.63
12.172,-0.04,-0.15,-0.45,0.47
12.182,1.14,0.92,1.28,1.94
12.193,1.42,0.97,-0.49,1.79
12.203,0.33,0.18,-0.57,0.68
12.213,-0.06,1.18,0.50,1.28
12.223,-1.79,-0.94,-0.46,2.07
12.233,-1.52,0.02,-0.14,1.52
12.243,-1.08,-0.21,-0.67,1.29
12.253,-0.07,-0.81,-0.35,0.89
12.263,0.93,0.39,0.68,1.22
12.273,0.39,-0.82,-0.01,0.90
12.283,-0.34,-0.28,-0.19,0.48
12.293,-0.03,0.39,0.07,0.40
12.303,0.08,-0.14,-0.23,0.28
12.314,1.00,0.64,0.68,1.37
12.324,1.67,1.03,-0.42,2.01
12.334,0.53,0.02,-0.31,0.62
12.344,-0.61,0.23,0.42,0.78
12.354,-2.31,-0.80,-0.14,2.45
12.364,-1.90,0.12,-0.49,1.97
12.374,-0.45,0.41,-0.82,1.02
12.384,0.04,-0.39,-0.09,0.41
12.394,0.96,0.07,0.56,1.11
12.404,0.89,-0.25,0.28,0.96
12.414,-0.46,-0.62,-0.43,0.88
12.424,-0.85,-0.52,-0.21,1.02
12.435,0.54,0.31,0.46,0.78
12.445,1.42,1.20,0.38,1.90
12.455,1.09,0.75,-0.73,1.51
12.465,0.44,0.53,-0.10,0.70
12.475,-0.77,0.09,0.17,0.80
12.485,-2.16,-1.27,-0.08,2.51
12.495,-1.61,-0.26,-0.43,1.68
12.505,-0.01,0.74,-0.25,0.78
12.515,0.38,0.20,-0.28,0.51
12.525,0.57,0.00,0.08,0.58
12.535,0.42,0.11,0.30,0.53
12.545,-0.21,-0.44,-0.33,0.59
12.556,-0.87,-1.24,-0.28,1.54
12.566,0.22,-0.08,0.95,0.97
12.576,1.98,1.25,0.21,2.35
12.586,1.17,0.65,-0.84,1.58
12.596,0.49,1.27,0.01,1.36
12.606,-1.03,-0.24,-0.03,1.05
12.616,-1.83,-0.50,-0.21,1.91
12.626,-1.45,-0.62,-0.07,1.58
12.636,-1.04,-0.66,-0.67,1.40
12.646,0.09,0.48,0.31,0.58
12.656,1.08,0.21,-0.23,1.13
12.667,0.43,-0.10,0.02,0.44
12.676,-0.22,-0.39,0.06,0.45
12.687,-0.44,-0.75,-0.40,0.95
12.697,-0.03,-0.32,0.67,0.75
12.707,1.10,0.40,0.55,1.29
12.717,1.24,1.06,-0.56,1.72
12.727,0.49,0.89,-0.71,1.24
12.737,0.32,0.93,0.41,1.07
12.747,-1.87,-0.66,0.15,1.99
12.757,-2.05,-0.73,-0.52,2.23
12.767,-0.23,-0.10,-0.83,0.86
12.777,-0.88,-0.98,0.13,1.33
12.787,0.31,-0.12,0.70,0.77
12.798,0.88,0.24,-0.25,0.94
12.808,0.07,0.34,-0.20,0.40
12.818,0.04,-0.45,-0.47,0.65
12.828,0.17,-0.23,0.57,0.64
12.838,1.62,0.78,0.79,1.96
12.848,0.52,0.01,-0.83,0.98
12.858,-0.05,0.89,0.13,0.90
12.868,-0.49,0.42,-0.31,0.72
12.878,-1.78,0.12,-0.04,1.79
12.888,-1.65,0.01,-0.36,1.69
12.898,-0.25,-0.58,-0.88,1.08
12.909,0.59,0.17,0.60,0.86
12.919,0.57,-1.18,0.15,1.32
12.929,-0.05,-0.49,0.14,0.51
12.939,-0.27,0.50,-0.12,0.58
12.949,-0.33,-0.41,-0.71,0.88
12.959,0.25,0.43,0.58,0.76
12.969,1.97,0.98,0.64,2.29
12.979,1.26,0.38,-0.94,1.62
12.989,0.05,0.53,0.28,0.60
12.999,-1.43,-0.11,0.20,1.45
13.009,-2.67,-0.45,-0.75,2.80
13.020,-1.12,0.85,-0.34,1.45
13.029,-0.22,-0.45,-0.40,0.64
13.040,0.83,-0.27,0.12,0.88
13.050,1.28,0.04,0.69,1.46
13.060,-0.26,-0.88,-0.47,1.03
13.070,-1.19,-0.96,-0.15,1.54
13.080,-0.08,0.03,-0.05,0.10
13.090,0.73,0.51,0.54,1.04
13.100,1.76,1.11,0.41,2.12
13.110,1.22,0.93,-1.12,1.90
13.120,0.35,0.39,0.27,0.59
13.130,-1.40,0.21,0.22,1.43
13.140,-2.97,-1.07,-0.47,3.19
13.151,-1.19,-0.42,-0.38,1.32
13.161,0.41,0.42,-0.25,0.63
13.171,0.82,-0.28,0.12,0.87
13.181,0.91,0.03,0.31,0.97
13.191,0.12,-0.16,-0.24,0.31
13.201,-0.69,-0.43,-0.29,0.86
13.211,-0.94,-0.63,0.06,1.13
13.221,0.43,-0.08,0.30,0.53
13.231,1.95,1.05,0.69,2.32
13.241,1.63,1.23,-0.59,2.13
13.251,-0.10,0.33,-0.64,0.72
13.262,-1.24,0.54,0.25,1.38
13.272,-2.73,-0.24,0.09,2.74
13.282,-1.59,-0.35,-0.84,1.83
13.292,0.24,-0.24,0.11,0.36
13.302,0.65,-1.02,-0.33,1.25
13.312,1.25,0.30,0.50,1.38
13.322,0.17,-0.47,0.37,0.62
13.332,-0.68,-0.64,-1.01,1.37
13.342,-0.78,-0.25,0.26,0.86
13.352,0.15,-0.10,0.17,0.25
13.362,1.47,0.96,0.69,1.89
13.373,1.31,0.60,-0.83,1.66
13.383,1.00,0.81,-0.07,1.29
13.393,-1.28,0.62,0.64,1.56
13.403,-2.71,0.30,-0.83,2.85
13.413,-1.65,-0.93,-1.04,2.16
13.423,-0.30,-0.10,0.26,0.41
13.433,0.57,-0.72,0.25,0.95
13.443,1.19,-0.69,0.33,1.41
13.453,0.56,0.32,0.35,0.73
13.463,-0.66,-1.12,-1.21,1.78
13.473,-0.19,0.26,0.43,0.54
13.483,0.77,0.77,0.85,1.38
13.493,0.88,0.36,-0.56,1.11
13.504,1.00,1.15,-0.13,1.53
13.514,0.19,0.86,-0.01,0.88
13.524,-1.59,0.00,0.04,1.59
13.534,-1.83,0.55,-0.27,1.93
13.544,-1.28,-0.72,-1.17,1.88
13.554,0.41,-0.26,0.10,0.50
13.564,0.48,-0.79,0.67,1.14
13.574,0.07,-0.80,0.36,0.88
13.584,0.14,-0.12,-0.22,0.29
13.594,-0.27,-0.50,-0.87,1.04
13.604,-0.05,0.14,0.38,0.41
13.615,1.48,0.94,0.93,1.98
13.625,1.56,0.73,-0.50,1.79
13.635,0.35,0.53,-0.53,0.83
13.645,-0.41,0.54,0.44,0.81
13.655,-1.68,-0.10,-0.18,1.69
13.665,-2.04,0.01,-0.21,2.05
13.675,-0.87,-0.11,-1.02,1.35
13.685,0.08,-0.48,-0.19,0.53
13.695,0.89,-0.07,0.87,1.25
13.705,0.43,-1.11,-0.13,1.20
13.715,-0.31,-0.55,0.06,0.64
13.725,0.01,0.35,-0.28,0.45
13.736,0.01,-0.13,-0.00,0.13
13.746,1.26,1.31,0.75,1.97
13.756,1.41,1.05,-0.55,1.84
13.766,0.19,0.43,-0.47,0.67
13.776,-0.46,-0.11,0.44,0.65
13.786,-1.95,-1.10,-0.32,2.26
13.796,-1.99,-0.21,-0.11,2.01
13.806,-0.17,-0.03,-0.50,0.53
13.816,0.52,0.20,-0.31,0.63
13.826,0.46,0.42,0.38,0.73
13.836,0.82,-0.05,0.05,0.83
13.846,-0.53,-0.34,-0.26,0.68
13.857,-0.94,-1.07,-0.13,1.43
13.867,0.52,-0.14,0.26,0.60
13.877,1.53,0.60,0.81,1.83
13.887,1.47,0.85,-0.54,1.78
13.897,0.51,0.97,-0.31,1.13
13.907,-1.03,0.27,-0.03,1.07
13.917,-2.18,-0.18,-0.20,2.19
13.927,-2.06,-0.16,-0.29,2.09
13.937,-0.82,-0.46,-0.65,1.15
13.947,1.17,-0.12,0.26,1.21
13.957,1.00,-0.18,0.30,1.06
13.967,0.33,-0.31,0.18,0.49
13.978,-0.21,-0.31,-0.52,0.64
13.988,-0.78,-0.40,-0.18,0.89
13.998,-0.35,-0.10,0.43,0.57
14.008,1.48,0.95,0.63,1.87
14.018,1.40,0.47,-1.00,1.79
14.028,1.06,1.00,0.13,1.47
14.038,-0.54,0.35,0.51,0.82
14.048,-2.28,-0.41,-0.51,2.38
14.058,-2.15,0.21,-0.62,2.25
14.068,-0.83,-0.73,-0.73,1.32
14.078,0.36,-0.43,0.45,0.71
14.088,1.08,-0.45,0.33,1.21
14.099,0.60,-0.55,0.24,0.86
14.109,-0.13,-0.07,-0.43,0.46
14.119,-0.64,-0.36,-0.28,0.78
14.129,0.62,0.89,0.78,1.34
14.139,1.15,0.81,-0.20,1.42
14.149,0.96,0.92,-0.42,1.39
14.159,0.60,1.20,0.35,1.39
14.169,-1.09,-0.71,-0.31,1.34
14.179,-1.76,-0.29,-0.02,1.78
14.189,-1.70,-0.55,-0.51,1.86
14.200,-0.29,-0.74,-0.93,1.22
14.210,0.30,-0.27,1.05,1.12
14.220,0.20,-0.41,-0.19,0.50
14.230,0.64,0.59,0.32,0.92
14.240,-0.05,0.16,-0.73,0.75
14.250,-0.49,-0.66,-0.24,0.86
14.260,1.41,1.15,1.17,2.16
14.270,1.57,0.35,-0.30,1.64
14.280,0.30,0.21,-0.42,0.56
14.290,-0.05,0.53,0.39,0.66
14.300,-1.50,-0.63,-0.51,1.71
14.310,-1.99,0.13,0.06,2.00
14.320,-1.35,-0.33,-0.78,1.59
14.330,-0.02,-0.29,-0.41,0.50
14.341,0.93,0.60,0.84,1.39
14.351,0.63,-0.62,-0.29,0.93
14.361,-0.23,-0.40,0.12,0.48
14.371,-0.29,-0.12,-0.37,0.48
14.381,-0.20,-0.47,-0.09,0.52
14.391,0.83,0.52,1.10,1.47
14.401,1.69,0.55,-0.67,1.90
14.411,0.72,0.78,-0.31,1.10
14.421,-0.26,0.70,0.44,0.86
14.431,-1.87,-0.84,-0.59,2.13
14.441,-1.78,0.39,0.31,1.85
14.452,-0.66,0.33,-1.05,1.28
14.462,0.02,-0.49,-0.37,0.61
14.472,0.79,0.29,0.75,1.13
14.482,0.57,-0.62,-0.01,0.84
14.492,-0.23,-0.44,-0.18,0.53
14.502,-0.86,-0.64,-0.08,1.07
14.512,0.24,0.10,-0.10,0.27
14.522,1.41,0.87,0.84,1.86
14.532,1.53,1.08,-0.32,1.90
14.542,0.41,0.51,-0.67,0.93
14.552,-0.19,0.62,0.13,0.66
14.562,-1.86,-1.04,0.27,2.15
14.573,-3.01,-0.65,-0.46,3.12
14.583,-0.39,-0.16,-0.49,0.65
14.593,0.99,0.25,-0.06,1.03
14.603,0.26,-0.00,0.08,0.27
14.613,0.81,-0.17,0.18,0.85
14.623,-0.16,0.07,-0.19,0.25
14.633,-1.05,-0.68,-0.32,1.29
14.643,-0.15,-0.58,0.23,0.64
14.653,1.25,0.83,0.92,1.76
14.663,1.80,1.14,-0.68,2.23
14.673,0.89,0.63,-0.30,1.13
14.684,-0.17,0.45,0.11,0.49
14.694,-1.84,-0.86,0.03,2.03
14.704,-1.88,-0.50,-0.27,1.96
14.714,-1.35,-0.26,-0.61,1.50
14.724,-0.37,0.04,-0.06,0.37
14.734,0.88,0.33,-0.03,0.94
14.744,0.80,-0.27,0.27,0.89
14.754,0.61,0.05,-0.20,0.65
14.764,-0.44,-0.69,-0.05,0.82
14.774,0.03,-0.25,0.31,0.40
14.785,0.53,0.03,0.25,0.59
14.794,0.98,1.27,-0.03,1.61
14.805,0.55,0.73,-0.74,1.18
14.815,0.21,0.48,0.16,0.55
14.825,-1.34,-0.27,1.58,2.09
14.835,-1.94,-1.04,0.10,2.21
14.845,-0.55,0.04,-2.72,2.77
14.855,-0.48,-0.60,-2.12,2.25
14.865,-0.24,-0.35,0.28,0.51
14.875,0.57,0.56,2.27,2.40
