time,ax,ay,az,atotal
0.000,-2.40,-0.15,1.47,2.82
0.010,-1.00,0.54,1.92,2.23
0.020,-0.00,-0.89,1.16,1.46
0.030,0.73,0.40,0.39,0.92
0.040,0.35,-1.37,-2.26,2.67
0.050,-0.02,-0.28,-0.77,0.83
0.060,-0.37,-0.03,0.71,0.81
0.071,-0.62,-0.69,0.96,1.34
0.081,0.80,0.77,0.84,1.39
0.091,1.75,0.76,-0.44,1.95
0.101,1.16,0.99,-1.75,2.32
0.111,-0.13,0.13,0.37,0.41
0.121,-1.60,-0.58,0.45,1.76
0.131,-1.90,-0.01,0.71,2.03
0.141,-0.71,0.30,-0.79,1.10
0.151,-0.19,-0.21,-1.27,1.30
0.161,0.63,0.42,0.22,0.79
0.171,0.97,-0.36,0.31,1.08
0.181,-0.41,-0.55,0.73,1.00
0.192,-0.75,-0.64,-0.38,1.05
0.202,-0.23,-0.73,-0.71,1.05
0.212,0.63,0.35,0.34,0.79
0.222,1.59,0.74,0.80,1.93
0.232,1.11,0.66,-0.47,1.38
0.242,0.48,0.72,-0.20,0.89
0.252,-1.16,0.10,-0.04,1.16
0.262,-2.67,-0.20,-0.25,2.69
0.272,-1.49,-0.25,-0.47,1.58
0.282,-0.08,-0.41,-0.44,0.60
0.292,0.98,0.25,0.50,1.12
0.302,0.95,-0.65,0.08,1.15
0.312,0.11,-0.43,-0.01,0.45
0.323,-0.66,-0.46,-0.16,0.82
0.333,-0.94,-0.68,-0.43,1.24
0.343,-0.15,0.02,0.43,0.46
0.353,1.45,0.65,0.50,1.67
0.363,2.25,1.06,-0.28,2.50
0.373,0.50,0.48,-0.52,0.87
0.383,-0.60,0.48,0.38,0.86
0.393,-2.70,0.07,-0.10,2.70
0.403,-2.50,-0.44,-0.85,2.68
0.413,0.09,-0.05,-0.50,0.51
0.423,0.50,-1.01,-0.04,1.13
0.434,1.62,0.06,1.04,1.93
0.443,0.34,-0.75,0.09,0.82
0.454,-0.27,-0.31,-0.62,0.74
0.464,-0.63,-0.58,-0.38,0.94
0.474,-0.51,-0.27,0.50,0.76
0.484,1.41,1.48,0.76,2.18
0.494,1.53,0.54,-0.98,1.89
0.504,0.79,1.18,-0.10,1.42
0.514,-1.21,0.37,0.54,1.38
0.524,-2.31,0.19,-0.60,2.40
0.535,-1.53,-0.57,-0.95,1.89
0.544,-0.33,-0.93,0.04,0.98
0.555,0.42,-0.66,0.34,0.85
0.565,1.45,-0.24,0.49,1.55
0.575,0.14,-0.59,-0.06,0.61
0.585,-0.79,-0.12,-0.44,0.91
0.595,-0.01,-0.04,-0.17,0.18
0.605,1.05,0.68,0.70,1.43
0.615,1.11,1.06,0.07,1.53
0.625,0.83,0.46,-0.60,1.13
0.635,-0.02,0.64,0.01,0.64
0.645,-1.72,0.23,0.50,1.80
0.655,-2.42,-0.24,-0.92,2.60
0.666,-1.07,-0.52,-0.80,1.43
0.676,0.54,-0.29,0.05,0.62
0.686,0.73,-0.77,0.45,1.15
0.696,0.64,-0.45,0.67,1.03
0.706,0.28,-0.12,-0.26,0.40
0.716,-0.57,0.08,-0.71,0.91
0.726,-0.43,-0.03,0.02,0.43
0.736,1.18,0.65,0.76,1.55
0.746,1.41,0.88,-0.10,1.66
0.756,0.46,0.33,-0.78,0.96
0.766,-0.58,-0.63,0.75,1.14
0.776,-1.03,0.45,-0.34,1.18
0.787,-1.96,-0.90,0.22,2.17
0.796,-0.67,0.76,-1.27,1.63
0.807,0.05,-0.02,0.15,0.16
0.817,0.80,0.59,-0.14,1.00
0.827,0.50,-0.67,0.47,0.96
0.837,-0.24,-0.93,0.05,0.96
0.847,-0.27,-0.38,-0.26,0.53
0.857,-0.06,-0.60,0.10,0.61
0.867,1.23,0.78,0.62,1.59
0.877,1.30,0.85,-0.27,1.58
0.887,0.62,0.90,-0.59,1.25
0.897,-0.38,0.43,0.24,0.62
0.908,-2.16,-0.59,0.01,2.24
0.918,-2.21,-0.59,-0.53,2.34
0.928,-0.14,0.09,-0.53,0.55
0.938,0.36,-0.33,0.22,0.54
0.948,0.76,0.06,0.16,0.78
0.958,0.73,-0.28,-0.02,0.78
0.968,-0.41,-0.39,0.04,0.57
0.978,-1.02,-0.71,-0.56,1.36
0.988,-0.55,-0.82,0.18,1.00
0.998,1.95,1.09,1.14,2.51
1.008,1.84,0.74,-0.73,2.12
1.019,0.66,0.49,-0.50,0.96
1.029,-0.25,0.84,0.42,0.97
1.039,-2.66,-0.24,-0.02,2.67
1.049,-2.55,0.01,-0.77,2.66
1.059,-0.81,-0.76,-0.81,1.38
1.069,1.24,0.11,0.19,1.26
1.079,1.09,-0.60,0.82,1.49
1.089,0.57,-0.55,0.01,0.79
1.099,-0.08,-0.14,-0.15,0.22
1.109,-0.61,-0.29,-0.57,0.88
1.119,-0.41,-0.08,0.27,0.50
1.129,1.13,1.25,0.91,1.91
1.139,1.25,0.58,-1.04,1.72
1.150,0.97,0.91,-0.05,1.33
1.160,-0.35,0.33,0.48,0.68
1.170,-2.07,-0.52,-0.17,2.14
1.180,-1.94,-0.09,-0.86,2.13
1.190,-0.87,-1.07,-0.53,1.48
1.200,0.13,-0.26,0.21,0.36
1.210,0.99,-0.30,0.71,1.26
1.220,0.90,-0.65,-0.17,1.12
1.230,-0.17,0.10,-0.14,0.24
1.240,-0.34,0.02,-0.19,0.39
1.251,0.61,0.63,0.57,1.05
1.260,1.02,1.09,-0.11,1.49
1.271,0.93,0.62,-0.43,1.20
1.281,0.32,0.51,0.19,0.63
1.291,-1.16,-0.61,-0.03,1.31
1.301,-2.13,-0.80,-0.14,2.28
1.311,-1.39,-0.05,-0.59,1.51
1.321,-0.26,-0.54,-0.55,0.81
1.331,0.68,0.04,0.52,0.86
1.341,0.63,0.21,0.33,0.74
1.351,0.57,0.21,-0.14,0.63
1.361,-0.51,-0.18,-0.55,0.77
1.371,-0.78,-0.76,-0.10,1.09
1.382,0.78,-0.20,0.82,1.14
1.392,1.53,0.73,0.22,1.71
1.402,0.95,0.38,-0.60,1.19
1.412,0.35,0.79,0.23,0.90
1.422,-1.44,-0.16,-0.39,1.50
1.432,-1.91,-0.14,-0.08,1.92
1.442,-1.48,0.16,-0.49,1.57
1.452,-0.27,-0.84,-0.43,0.98
1.462,1.12,0.33,0.33,1.21
1.472,0.66,-0.71,0.24,1.00
1.482,-0.06,-0.23,0.09,0.26
1.492,-0.28,-0.05,-0.32,0.43
1.503,-0.23,-0.42,-0.31,0.57
1.513,0.87,0.69,0.99,1.49
1.523,1.37,0.49,-0.24,1.47
1.533,0.79,0.80,-0.46,1.22
1.543,-0.10,0.37,0.19,0.43
1.553,-1.95,-0.89,-0.27,2.16
1.563,-1.93,-0.24,0.02,1.94
1.573,-0.64,0.17,-0.52,0.84
1.583,-0.08,-0.35,-0.39,0.53
1.593,0.77,0.22,0.20,0.82
1.603,0.72,-0.46,0.15,0.87
1.613,-0.07,-0.13,0.16,0.21
1.624,-0.94,-0.65,-0.36,1.20
1.634,-0.50,-0.51,-0.08,0.71
1.644,1.50,1.07,0.73,1.98
1.654,1.79,0.84,-0.18,1.98
1.664,0.76,0.37,-0.51,0.99
1.674,0.01,0.47,0.13,0.49
1.684,-1.72,-0.74,0.12,1.88
1.694,-2.82,-0.65,-0.30,2.91
1.704,-1.00,-0.03,-0.57,1.15
1.714,0.52,0.32,-0.33,0.69
1.724,0.79,0.07,0.32,0.85
1.735,1.09,-0.17,0.03,1.10
1.744,0.04,-0.12,0.34,0.36
1.755,-0.68,-0.63,-0.61,1.11
1.765,-0.83,-0.97,0.08,1.27
1.775,0.92,1.18,1.03,1.81
1.785,1.71,1.09,-0.62,2.12
1.795,0.98,0.83,-0.57,1.40
1.805,0.04,0.43,0.19,0.48
1.815,-1.48,-0.81,0.14,1.69
1.825,-1.81,-0.56,-0.09,1.90
1.835,-1.43,-0.80,-0.77,1.81
1.845,-0.42,-0.13,-0.36,0.56
1.856,0.57,0.87,0.80,1.31
1.866,0.99,-0.12,-0.71,1.23
1.876,0.50,-0.14,0.58,0.78
1.886,-0.22,0.07,-0.43,0.49
1.896,0.05,-1.39,0.35,1.44
1.906,0.52,0.51,0.41,0.84
1.916,0.74,0.54,-0.05,0.92
1.926,0.71,0.92,-0.58,1.29
1.936,-0.05,0.83,0.11,0.84
1.946,-1.22,-0.65,-0.15,1.39
1.956,-1.49,-0.58,-0.22,1.61
1.967,-1.03,-0.25,-0.25,1.09
1.977,-0.28,-0.69,-0.52,0.90
1.987,0.17,-0.34,0.71,0.80
1.997,0.73,0.82,0.01,1.10
2.007,0.23,-0.45,-0.43,0.66
2.017,-0.03,0.34,-0.12,0.37
2.027,-0.03,-0.38,0.48,0.61
2.037,1.07,0.16,0.42,1.16
2.047,1.13,0.51,-0.36,1.29
2.057,-0.07,-0.16,-0.46,0.49
2.067,-0.09,0.62,0.46,0.78
2.077,-1.09,-0.09,0.09,1.10
2.088,-2.02,0.12,-0.65,2.13
2.098,-0.72,0.15,-0.86,1.13
2.108,0.26,0.18,0.01,0.32
2.118,0.54,-0.62,0.39,0.91
2.128,0.56,-0.74,0.57,1.09
2.138,0.09,-0.10,-0.60,0.61
2.148,-0.65,-0.68,0.07,0.95
2.158,-0.33,0.00,-0.26,0.42
2.168,0.85,0.31,0.89,1.26
2.178,1.97,1.34,-0.37,2.41
2.188,0.61,0.04,-0.46,0.76
2.199,-0.54,0.78,0.32,1.00
2.209,-2.38,-0.17,0.04,2.38
2.219,-2.11,-0.12,-0.95,2.31
2.229,-0.22,0.12,-0.41,0.49
2.239,0.60,-0.65,0.15,0.90
2.249,1.26,-0.24,0.39,1.34
2.259,0.33,-0.55,0.54,0.84
2.269,-1.04,-0.50,-0.65,1.33
2.279,-1.29,-0.65,-0.50,1.53
2.289,0.26,0.06,0.01,0.27
2.299,2.02,0.87,1.35,2.58
2.309,1.81,0.87,-0.37,2.04
2.319,0.81,0.47,-0.68,1.16
2.330,-0.45,0.40,0.22,0.65
2.340,-2.80,-0.24,-0.13,2.82
2.350,-2.45,-0.47,-0.38,2.52
2.360,-0.45,-0.54,-0.85,1.10
2.370,0.97,0.33,0.64,1.21
2.380,1.36,-0.38,-0.16,1.42
2.390,0.52,-0.48,0.46,0.84
2.400,-0.17,-0.14,-0.33,0.39
2.410,-1.49,-0.99,-0.47,1.85
2.420,-0.49,0.37,0.58,0.85
2.430,1.47,0.55,0.36,1.60
2.441,1.99,1.07,-0.35,2.29
2.451,0.81,0.60,-0.45,1.10
2.461,-0.40,0.00,0.25,0.47
2.471,-2.31,0.22,0.35,2.34
2.481,-2.51,-0.44,-0.81,2.68
2.491,-0.49,-0.68,-0.99,1.30
2.501,0.59,0.37,0.48,0.85
2.511,1.50,-0.69,0.23,1.67
2.521,0.55,-0.58,0.68,1.05
2.531,-0.06,0.28,-0.40,0.50
2.541,-0.79,-1.21,-0.70,1.61
2.551,-0.24,0.53,0.46,0.74
2.561,1.17,0.72,0.82,1.60
2.571,1.38,0.65,-1.06,1.86
2.582,0.65,1.25,0.38,1.46
2.592,-1.18,-0.04,-0.00,1.18
2.602,-2.21,0.26,-0.51,2.29
2.612,-1.48,-0.26,-0.67,1.64
2.622,-0.27,-1.18,-0.30,1.25
2.632,0.63,-0.08,0.81,1.03
2.642,1.02,-0.62,0.08,1.20
2.652,0.26,-0.15,-0.11,0.32
2.662,-0.49,-0.10,-0.22,0.55
2.672,-0.33,-0.32,-0.31,0.55
2.683,0.52,0.71,0.71,1.13
2.693,1.33,0.70,0.26,1.53
2.703,0.72,0.14,-0.98,1.22
2.713,0.48,0.84,0.44,1.06
2.723,-1.01,-0.12,0.23,1.04
2.733,-2.60,-0.30,-0.46,2.66
2.743,-1.27,0.21,-0.88,1.56
2.753,0.35,0.10,-0.19,0.41
2.763,0.52,-0.40,0.39,0.76
2.773,0.95,-0.52,0.53,1.20
2.783,0.34,-0.20,-0.17,0.43
2.793,-0.69,-0.51,-0.37,0.94
2.804,-0.38,-0.34,-0.18,0.54
2.814,0.42,0.23,0.62,0.79
2.824,1.37,1.06,0.34,1.76
2.834,1.09,0.84,-0.73,1.55
2.844,-0.39,0.09,-0.11,0.42
2.854,-1.18,-0.40,0.05,1.24
2.864,-1.71,0.15,0.14,1.72
2.874,-1.37,-0.33,-0.46,1.48
2.884,0.25,-0.07,-0.68,0.73
2.894,0.68,0.23,0.27,0.77
2.904,0.62,-0.41,0.22,0.78
2.914,-0.22,-0.77,0.06,0.80
2.925,-0.89,-0.89,-0.37,1.31
2.935,0.07,-0.33,0.05,0.34
2.945,0.99,0.53,0.98,1.50
2.955,1.47,0.92,-0.31,1.76
2.965,1.17,0.80,-0.66,1.56
2.975,0.09,0.75,0.15,0.77
2.985,-2.02,-0.52,0.18,2.09
2.995,-2.46,-0.53,-0.39,2.54
3.005,-0.69,0.05,-0.61,0.92
3.015,0.37,-0.08,-0.02,0.38
3.025,0.76,-0.22,-0.01,0.79
3.035,0.76,-0.31,0.39,0.91
3.046,0.05,-0.09,0.03,0.11
3.056,-1.10,-0.99,-0.50,1.57
3.066,-0.28,-0.02,0.28,0.40
3.076,1.42,0.93,0.87,1.91
3.086,1.47,0.65,-0.74,1.77
3.096,0.79,0.79,-0.27,1.15
3.106,-0.22,0.19,0.22,0.36
3.116,-1.45,-0.12,0.25,1.47
3.126,-2.36,0.02,-0.35,2.39
3.137,-1.55,-0.96,-1.55,2.39
3.146,0.72,0.43,0.51,0.98
3.156,0.82,-0.49,0.20,0.98
3.167,0.71,-0.80,0.46,1.16
3.177,0.42,0.21,0.17,0.50
3.187,-0.57,-0.68,-0.74,1.16
3.197,-0.25,0.30,0.21,0.45
3.207,1.05,1.14,0.80,1.74
3.217,1.19,0.92,-1.17,1.91
3.227,0.38,0.72,0.77,1.12
3.237,-0.01,0.36,-0.01,0.36
3.247,-1.76,-0.69,-0.41,1.93
3.257,-2.47,-0.94,-0.48,2.69
3.268,-0.45,-0.62,-0.55,0.94
3.277,0.14,0.06,0.41,0.44
3.288,0.95,0.02,0.33,1.01
3.298,0.89,0.26,-0.09,0.93
3.308,-0.59,-0.20,-0.42,0.75
3.318,-0.23,-0.59,-0.22,0.67
3.328,0.28,0.34,0.82,0.93
3.338,0.99,0.50,0.50,1.21
3.348,1.13,0.33,-0.99,1.54
3.358,0.90,1.04,0.18,1.39
3.368,-0.74,-0.08,-0.10,0.76
3.378,-1.85,-0.61,0.16,1.95
3.388,-1.81,0.12,-0.38,1.86
3.399,-0.61,-0.44,-0.98,1.24
3.409,0.35,-0.09,0.19,0.41
3.419,0.60,-0.13,0.65,0.90
3.429,0.66,-0.32,-0.04,0.74
3.439,-0.20,-0.18,-0.22,0.34
3.449,-0.44,-0.12,-0.28,0.54
3.459,0.14,-0.38,0.20,0.46
3.469,1.59,0.93,0.79,2.00
3.479,0.90,0.57,-0.57,1.21
3.489,-0.18,0.13,-0.18,0.29
3.499,-0.45,0.51,0.05,0.68
3.509,-1.79,-0.61,-0.05,1.89
3.520,-1.56,0.22,-0.32,1.61
3.530,-0.43,-0.45,-0.79,1.01
3.540,0.36,-0.23,0.13,0.44
3.550,0.62,-0.12,0.46,0.78
3.560,0.18,-0.80,0.17,0.84
3.570,-0.37,0.08,-0.38,0.53
3.580,-0.16,-0.51,-0.29,0.60
3.590,0.86,0.54,0.43,1.10
3.600,1.30,0.54,0.75,1.59
3.610,0.80,0.43,-1.08,1.41
3.620,0.30,0.67,0.24,0.77
3.630,-1.19,-0.26,0.13,1.22
3.641,-2.15,-0.57,-0.16,2.23
3.651,-1.32,0.22,-0.28,1.37
3.661,-0.40,-0.17,-1.10,1.19
3.671,0.64,-0.17,0.32,0.73
3.681,1.06,-0.10,0.65,1.24
3.691,0.32,-0.35,0.04,0.48
3.701,-0.65,-0.46,-0.50,0.94
3.711,-0.77,-0.22,0.16,0.81
3.721,1.00,0.74,0.25,1.27
3.731,1.59,0.95,0.05,1.85
3.741,1.05,0.63,-0.44,1.30
3.752,0.19,0.12,-0.01,0.23
3.762,-0.89,-0.27,0.45,1.03
3.772,-2.74,-1.21,-0.34,3.02
3.782,-1.69,-0.11,-0.73,1.84
3.792,0.17,1.04,-0.12,1.06
3.802,0.30,-0.32,-0.36,0.57
3.812,1.32,0.14,0.51,1.42
3.822,0.94,0.13,0.37,1.01
3.832,-0.57,-1.14,-0.58,1.40
3.842,-1.02,-0.58,0.06,1.18
3.853,0.33,0.06,0.90,0.96
3.862,1.70,1.50,-0.35,2.30
3.873,0.89,0.80,-0.52,1.30
3.883,0.40,0.49,-0.13,0.64
3.893,-1.17,-0.43,0.20,1.26
3.903,-2.03,-0.93,-0.05,2.24
3.913,-1.40,-0.39,-0.40,1.51
3.923,-0.67,-0.24,-0.49,0.87
3.933,0.56,0.55,0.27,0.83
3.943,1.01,0.09,-0.07,1.01
3.953,0.80,0.18,0.16,0.83
3.963,-0.23,-0.17,-0.18,0.34
3.973,-0.95,-1.06,-0.03,1.42
3.983,0.81,0.22,0.58,1.02
3.994,1.13,0.27,-0.17,1.17
4.004,0.81,1.05,-0.03,1.33
4.014,0.66,0.79,-0.03,1.03
4.024,-1.11,-0.36,-0.40,1.23
4.034,-1.97,-0.57,0.07,2.05
4.044,-1.08,-0.18,-0.40,1.17
4.054,-0.66,-0.38,-0.58,0.95
4.064,0.18,-0.25,0.70,0.76
4.074,1.17,0.49,-0.18,1.28
4.084,0.40,0.01,-0.07,0.41
4.094,-0.15,-0.14,-0.20,0.28
4.105,-0.79,-1.00,-0.03,1.27
4.115,0.61,0.00,0.60,0.86
4.125,1.55,0.28,0.18,1.58
4.135,0.21,0.29,-0.32,0.49
4.145,0.10,0.68,-0.27,0.74
4.155,-0.64,0.48,-0.06,0.80
4.165,-2.13,0.37,0.16,2.17
4.175,-1.29,-0.33,-0.94,1.63
4.185,-0.01,-0.40,-0.46,0.61
4.195,0.65,-0.08,0.59,0.88
4.205,0.80,-1.04,0.32,1.35
4.215,-0.09,-0.25,0.27,0.38
4.225,-0.45,-0.20,-0.64,0.80
4.236,-0.21,-0.05,-0.28,0.35
4.246,0.65,0.25,0.78,1.05
4.256,1.78,1.01,0.22,2.06
4.266,0.90,0.38,-0.65,1.17
4.276,-0.19,0.33,0.13,0.40
4.286,-1.71,-0.25,0.09,1.73
4.296,-2.54,-0.29,-0.39,2.58
4.306,-0.57,0.52,-0.51,0.93
4.316,0.22,-0.47,-0.50,0.71
4.326,1.12,0.12,0.53,1.24
4.337,1.14,-0.26,0.49,1.27
4.347,-0.79,-0.83,-0.35,1.19
4.357,-1.39,-0.44,-0.17,1.46
4.367,0.02,-0.36,-0.29,0.46
4.377,1.31,0.89,0.90,1.82
4.387,1.77,0.84,0.10,1.96
4.397,0.95,0.32,-0.98,1.40
4.407,0.27,0.63,0.47,0.83
4.417,-2.10,-0.22,0.21,2.12
4.427,-3.31,-1.00,-0.88,3.57
4.437,-0.54,-0.05,0.35,0.64
4.447,1.09,1.00,-0.91,1.74
4.457,0.43,-1.35,-0.19,1.43
4.468,1.05,0.47,1.02,1.53
4.478,0.82,0.09,-0.36,0.90
4.488,-1.62,-1.41,0.09,2.15
4.498,-1.07,0.21,-0.11,1.10
4.508,1.19,-0.11,0.37,1.25
4.518,2.20,1.49,0.08,2.66
4.528,0.59,0.72,-0.37,1.00
4.538,-0.06,-0.01,-0.41,0.41
4.548,-2.01,-0.01,0.62,2.11
4.558,-2.45,0.30,-0.90,2.62
4.568,-0.96,-1.25,-0.54,1.66
4.578,0.60,0.29,0.40,0.78
4.589,0.88,-0.27,0.07,0.93
4.599,1.15,-0.44,0.23,1.25
4.609,0.04,-0.11,0.05,0.12
4.619,-0.86,-0.71,-0.65,1.29
4.629,-0.33,-0.03,0.23,0.40
4.639,0.82,0.61,1.06,1.48
4.649,1.38,0.75,-0.94,1.83
4.659,1.71,1.18,0.06,2.08
4.669,-0.77,0.04,0.18,0.79
4.679,-2.57,-0.43,-0.25,2.62
4.689,-1.59,0.57,-0.79,1.86
4.699,-1.20,-1.44,-0.49,1.93
4.710,0.64,0.48,0.74,1.09
4.720,1.30,-0.53,-0.02,1.40
4.730,0.91,0.46,0.31,1.07
4.740,-0.30,-0.31,-0.32,0.54
4.750,-1.04,-1.08,-0.68,1.65
4.760,0.04,0.53,0.45,0.70
4.770,1.03,-0.25,0.95,1.43
4.780,0.91,0.89,-0.28,1.31
4.790,0.79,0.70,-0.61,1.22
4.800,-0.10,0.70,-0.18,0.73
4.811,-2.25,0.00,0.60,2.33
4.821,-2.07,-0.44,-0.90,2.30
4.831,-0.52,-0.14,-0.65,0.85
4.841,0.63,-0.29,0.33,0.77
4.851,0.92,-0.75,0.18,1.20
4.861,0.33,-0.50,0.48,0.76
4.871,-0.14,-0.13,-0.42,0.46
4.881,-0.43,-0.27,-0.25,0.56
4.891,-0.20,-0.02,0.05,0.21
4.901,1.21,0.62,0.68,1.52
4.911,1.66,0.96,-0.29,1.94
4.922,0.25,0.19,-0.31,0.44
4.932,-0.72,0.03,0.10,0.73
4.942,-1.68,0.14,0.14,1.70
4.952,-2.02,0.03,-0.57,2.10
4.962,-0.32,-0.11,-0.84,0.90
4.972,0.41,-0.09,0.21,0.47
4.982,1.05,-0.01,0.48,1.16
4.992,0.32,-1.06,0.01,1.11
5.002,-0.66,-0.39,-0.05,0.77
5.012,-0.44,-0.25,-0.21,0.54
5.022,0.47,0.24,0.24,0.58
5.032,1.64,1.16,0.50,2.07
5.042,1.20,0.55,-0.79,1.54
5.053,0.48,0.44,-0.06,0.66
5.063,-0.72,-0.05,0.58,0.93
5.073,-2.80,-0.92,-0.35,2.97
5.083,-1.72,0.18,-0.64,1.85
5.093,0.07,0.14,-0.59,0.61
5.103,0.44,-0.36,0.12,0.58
5.113,1.08,0.01,0.65,1.26
5.123,0.63,-0.63,0.01,0.89
5.133,-0.50,-0.30,-0.30,0.65
5.143,-0.74,-0.48,-0.04,0.88
5.153,0.68,0.34,0.63,0.99
5.163,1.51,1.11,0.06,1.87
5.174,0.69,0.34,-0.85,1.14
5.184,0.37,0.83,0.28,0.95
5.194,-1.14,0.02,0.40,1.21
5.204,-2.35,-0.18,-0.55,2.42
5.214,-1.63,-0.39,-0.92,1.91
5.224,0.19,-0.01,-0.21,0.28
5.234,0.72,-0.41,0.56,1.00
5.244,1.03,-0.39,0.44,1.19
5.254,0.19,-0.46,-0.05,0.50
5.264,-0.31,-0.12,-0.60,0.69
5.275,-0.56,-0.29,0.03,0.64
5.284,0.63,0.56,0.75,1.13
5.295,1.59,0.96,-0.09,1.86
5.305,1.17,1.16,-0.47,1.71
5.315,-0.12,0.18,0.10,0.24
5.325,-1.55,-0.52,-0.09,1.64
5.335,-2.05,0.07,-0.15,2.06
5.345,-1.65,-0.93,-0.78,2.05
5.355,0.09,-0.15,0.08,0.19
5.365,1.02,0.12,0.24,1.05
5.375,1.33,-0.26,-0.04,1.35
5.385,0.22,0.42,0.49,0.68
5.395,-0.92,-0.76,-0.76,1.41
5.405,-0.49,-0.06,-0.07,0.50
5.415,0.88,0.69,0.92,1.44
5.426,0.94,-0.03,-0.22,0.97
5.436,0.83,0.47,-0.50,1.07
5.446,0.41,0.38,0.34,0.65
5.456,-1.21,-0.04,0.01,1.21
5.466,-2.29,-0.05,-0.17,2.29
5.476,-1.18,-0.25,-0.98,1.55
5.486,-0.14,-0.15,-0.27,0.34
5.496,0.38,-0.26,0.54,0.71
5.506,0.91,-0.46,0.36,1.08
5.517,0.24,-0.21,-0.08,0.33
5.527,-0.16,-0.15,-0.52,0.57
5.537,-0.31,-0.46,0.08,0.56
5.547,0.95,0.69,0.78,1.41
5.557,1.17,0.48,-0.28,1.29
5.567,0.50,0.38,-0.39,0.74
5.577,0.14,0.64,0.17,0.68
5.587,-1.53,-0.51,0.03,1.61
5.597,-2.12,0.15,-0.15,2.13
5.607,-1.13,-0.49,-1.09,1.65
5.617,0.29,-0.20,-0.12,0.37
5.627,0.71,0.03,0.75,1.03
5.637,0.59,-0.87,-0.05,1.05
5.647,-0.13,0.32,0.34,0.48
5.658,-0.05,0.31,-0.64,0.71
5.668,0.11,-0.32,0.02,0.34
5.678,1.17,0.97,0.68,1.66
5.688,0.92,-0.01,-0.52,1.05
5.698,0.84,0.56,0.11,1.02
5.708,-0.82,-0.29,0.18,0.89
5.718,-2.41,-0.96,-0.47,2.63
5.728,-1.30,1.06,0.09,1.67
5.738,-0.81,-0.32,-1.38,1.63
5.748,0.37,-0.03,0.28,0.47
5.758,1.34,0.35,0.72,1.57
5.769,0.65,-0.83,-0.08,1.05
5.778,-0.41,-0.13,-0.00,0.43
5.789,-0.88,-0.64,-0.28,1.12
5.799,0.36,0.32,0.22,0.53
5.809,1.41,1.03,0.43,1.80
5.819,1.08,0.40,-0.67,1.33
5.829,0.47,0.65,0.16,0.82
5.839,-0.77,-0.04,0.19,0.80
5.849,-2.05,-1.04,-0.49,2.35
5.859,-2.08,-0.07,-0.10,2.08
5.870,0.01,0.11,-0.71,0.72
5.879,0.10,0.01,0.31,0.32
5.890,0.97,0.23,0.20,1.01
5.900,0.92,-0.21,0.01,0.95
5.910,-0.30,0.02,-0.22,0.38
5.920,-0.73,-1.20,-0.06,1.41
5.930,0.45,0.03,0.59,0.74
5.940,1.48,1.44,0.46,2.12
5.950,1.06,0.65,-0.92,1.55
5.960,0.38,0.73,-0.03,0.82
5.970,-1.21,-0.31,0.16,1.26
5.980,-1.64,-0.96,-0.39,1.94
5.990,-1.29,-0.33,0.14,1.34
6.000,-0.88,-0.26,-0.34,0.98
6.011,0.55,0.56,-0.29,0.84
6.021,0.85,0.33,-0.01,0.91
6.031,0.75,0.21,0.34,0.85
6.041,-0.40,-0.43,-0.43,0.73
6.051,-0.72,-0.94,0.01,1.19
6.061,0.52,-0.76,0.42,1.01
6.071,0.54,-0.09,0.53,0.77
6.081,1.10,1.25,-0.16,1.67
6.091,0.57,1.13,-0.67,1.43
6.101,-0.50,0.49,-0.22,0.73
6.111,-1.48,-0.15,0.16,1.50
6.122,-1.90,-0.87,-0.43,2.14
6.132,-0.43,0.13,-0.80,0.92
6.142,0.76,-0.54,1.57,1.83
6.152,0.23,-0.34,-0.87,0.96
6.162,-0.36,-1.03,0.40,1.16
6.172,0.72,1.09,-0.70,1.48
6.182,-0.83,-1.26,0.26,1.53
6.192,0.67,0.74,0.21,1.02
6.202,1.74,0.55,0.58,1.91
6.212,0.52,0.44,-0.73,1.00
6.222,0.05,0.44,0.05,0.45
6.232,-0.70,0.06,0.03,0.70
6.242,-1.99,-0.05,0.09,2.00
6.253,-1.38,-0.22,-0.81,1.61
6.263,-0.10,-0.17,-0.53,0.57
6.273,0.65,0.30,0.49,0.87
6.283,0.54,-0.95,-0.04,1.09
6.293,0.10,0.20,0.59,0.63
6.303,-0.32,-0.34,-0.49,0.68
6.313,-0.41,-0.26,-0.53,0.72
6.323,0.34,0.17,0.87,0.95
6.333,1.83,0.60,0.08,1.93
6.343,1.04,0.76,-0.47,1.37
6.353,0.06,-0.20,0.13,0.25
6.363,-1.40,0.08,-0.04,1.40
6.374,-2.19,0.32,0.22,2.22
6.384,-1.35,-0.16,-1.01,1.69
6.394,0.02,0.37,-0.66,0.75
6.404,0.85,-0.24,0.68,1.11
6.414,1.17,-0.60,0.07,1.31
6.424,-0.11,-0.54,0.60,0.82
6.434,-0.94,-0.60,-0.60,1.27
6.444,-0.52,-0.51,-0.41,0.84
6.454,0.87,1.06,0.78,1.58
6.464,1.58,0.78,0.21,1.77
6.475,1.04,0.44,-0.87,1.43
6.485,0.68,0.73,0.46,1.10
6.495,-1.57,-0.38,0.09,1.62
6.505,-2.92,-0.52,-0.62,3.03
6.515,-1.39,-0.16,-0.30,1.43
6.525,0.43,0.11,-0.45,0.63
6.535,1.04,0.16,0.32,1.10
6.545,1.05,-0.35,0.19,1.12
6.555,0.04,-0.42,0.23,0.48
6.565,-0.75,-0.63,-0.54,1.12
6.575,-0.89,-0.64,-0.10,1.10
6.585,0.23,0.02,0.64,0.68
6.596,2.44,1.25,0.37,2.76
6.606,1.45,1.09,-0.60,1.91
6.616,-0.08,0.55,-0.17,0.58
6.626,-1.49,0.00,-0.01,1.49
6.636,-2.85,-0.08,-0.11,2.86
6.646,-1.58,-0.67,-0.74,1.87
6.656,0.53,-0.22,-0.01,0.57
6.666,1.32,0.11,0.41,1.38
6.676,1.32,0.09,0.30,1.35
6.686,-0.14,-0.75,-0.29,0.82
6.696,-0.78,-0.37,-0.32,0.92
6.707,-0.95,-0.80,-0.26,1.27
6.716,-0.06,-0.12,0.95,0.95
6.727,2.00,1.30,0.61,2.46
6.737,1.46,0.81,-1.31,2.12
6.747,0.34,1.03,-0.07,1.08
6.757,-1.32,0.55,0.79,1.63
6.767,-2.99,-0.60,-1.13,3.25
6.777,-1.35,-0.61,-0.50,1.56
6.787,0.21,-0.57,0.43,0.74
6.797,0.49,-0.95,-0.08,1.07
6.807,1.19,-0.36,0.32,1.29
6.817,0.63,0.10,0.19,0.66
6.827,-0.91,-0.40,-0.70,1.22
6.838,-0.31,0.21,0.08,0.38
6.847,0.95,0.61,0.72,1.33
6.858,1.07,0.73,-0.15,1.30
6.868,0.87,0.49,-0.58,1.15
6.878,0.22,0.56,0.32,0.68
6.888,-1.61,-0.03,0.27,1.63
6.898,-2.34,-0.07,-0.70,2.44
6.908,-1.21,-0.38,-0.88,1.54
6.918,0.52,-0.08,0.02,0.53
6.928,0.70,-0.89,0.39,1.20
6.938,0.83,-0.16,0.73,1.12
6.948,-0.01,-0.23,-0.27,0.36
6.958,-0.58,-0.03,-0.77,0.97
6.969,-0.09,0.19,0.32,0.38
6.979,1.26,0.85,0.56,1.62
6.989,1.59,0.73,-0.26,1.77
6.999,0.60,0.09,-0.28,0.66
7.009,-0.76,-0.32,0.25,0.86
7.019,-1.84,-0.19,0.11,1.85
7.029,-1.86,0.18,-0.51,1.94
7.039,-0.86,-0.24,-1.01,1.35
7.049,0.40,0.20,0.23,0.51
7.059,1.11,0.02,0.25,1.14
7.069,0.60,-0.78,0.40,1.06
7.080,-0.38,-0.35,-0.15,0.54
7.090,-0.40,-0.67,-0.30,0.84
7.100,0.07,0.33,0.27,0.43
7.110,1.26,0.76,0.57,1.58
7.120,1.19,0.76,-0.81,1.63
7.130,0.51,0.70,0.18,0.88
7.140,-0.58,-0.11,-0.13,0.61
7.150,-2.26,-1.01,0.10,2.48
7.160,-1.56,0.45,-0.34,1.66
7.170,-0.46,-0.29,-0.79,0.96
7.180,0.57,0.53,0.02,0.78
7.191,0.85,0.07,0.52,1.00
7.201,0.49,-0.72,-0.20,0.90
7.211,-0.47,-0.48,0.10,0.68
7.221,-0.92,-1.29,-0.32,1.62
7.231,0.56,0.23,0.62,0.87
7.241,2.37,1.59,0.81,2.97
7.251,0.89,0.83,-1.31,1.79
7.261,0.06,0.84,0.03,0.84
7.271,-0.72,0.09,0.03,0.73
7.281,-2.54,-0.52,0.07,2.59
7.291,-1.99,-0.52,-0.54,2.13
7.302,0.23,-0.34,-0.66,0.78
7.311,0.45,-0.10,0.56,0.72
7.322,1.17,0.28,0.09,1.21
7.332,0.45,-0.71,0.33,0.90
7.342,-0.26,0.30,-0.56,0.68
7.352,-0.75,-0.98,-0.22,1.25
7.362,-0.18,0.33,0.41,0.56
7.372,1.14,0.62,0.89,1.57
7.382,1.74,0.73,-1.21,2.24
7.392,0.57,0.75,0.36,1.01
7.402,-0.61,-0.05,-0.04,0.61
7.412,-2.20,-0.20,-0.14,2.22
7.422,-2.17,0.02,-0.44,2.21
7.433,-0.95,-0.92,-0.78,1.54
7.443,0.49,0.12,0.25,0.56
7.453,1.13,-0.52,0.37,1.30
7.463,1.13,-0.03,-0.02,1.13
7.473,0.17,-0.12,0.73,0.76
7.483,-0.53,-0.08,-1.19,1.30
7.493,-0.64,-0.58,0.68,1.10
7.503,1.53,1.46,0.18,2.12
7.513,0.44,-0.34,-0.52,0.76
7.523,1.15,0.84,0.02,1.43
7.533,-0.53,0.01,0.59,0.79
7.544,-2.14,-0.24,-0.54,2.22
7.554,-1.86,0.03,-0.48,1.92
7.564,-0.55,-0.11,-0.84,1.01
7.574,0.25,-0.29,0.29,0.48
7.584,1.00,-0.26,0.66,1.23
7.594,0.81,-0.05,0.28,0.86
7.604,-0.28,-0.21,-0.72,0.80
7.614,-0.51,-0.45,-0.10,0.69
7.624,0.65,0.41,0.69,1.04
7.634,1.62,0.71,0.05,1.77
7.644,0.85,0.18,-0.32,0.93
7.655,-0.22,0.31,0.09,0.39
7.664,-1.30,0.23,-0.12,1.33
7.675,-2.01,-0.13,-0.17,2.02
7.685,-1.62,-0.29,-0.99,1.92
7.695,0.25,-0.13,0.02,0.28
7.705,1.00,-0.15,0.29,1.06
7.715,0.92,-0.47,0.48,1.14
7.725,-0.02,-0.10,0.04,0.11
7.735,-0.56,-0.01,-0.64,0.85
7.745,-0.50,-0.32,-0.09,0.60
7.755,1.07,0.66,0.79,1.49
7.765,1.43,0.35,-0.21,1.49
7.775,0.93,0.60,-0.21,1.13
7.786,-0.19,0.28,0.18,0.38
7.795,-2.14,-0.80,-0.40,2.32
7.806,-1.99,0.22,0.09,2.01
7.816,-0.82,0.19,-0.88,1.22
7.826,0.07,-0.11,-0.12,0.18
7.836,1.18,0.24,0.13,1.21
7.846,0.87,-0.54,0.60,1.19
7.856,-0.29,-0.23,-0.25,0.45
7.866,-1.11,-1.20,-0.32,1.67
7.876,0.44,0.58,0.35,0.81
7.886,1.60,0.88,0.65,1.94
7.896,1.20,0.63,-0.83,1.59
7.907,0.60,0.96,0.10,1.13
7.917,-0.48,0.01,-0.04,0.48
7.927,-2.17,-1.09,-0.22,2.44
7.937,-2.03,-0.27,0.20,2.06
7.947,-0.36,0.11,-0.80,0.89
7.957,0.68,0.44,-0.06,0.81
7.967,0.68,0.21,0.27,0.77
7.977,0.49,-0.30,-0.05,0.57
7.987,-0.32,-0.10,0.03,0.34
7.997,-0.62,-1.09,-0.36,1.30
8.007,-0.73,-0.99,0.21,1.25
8.017,1.22,0.61,1.13,1.77
8.028,2.23,1.54,-0.57,2.77
8.038,0.32,0.54,-0.68,0.93
8.048,-0.06,0.71,0.11,0.72
8.058,-1.80,-0.72,0.01,1.94
8.068,-2.12,-0.63,-0.10,2.21
8.078,-0.90,-0.29,-0.39,1.02
8.088,-0.22,-0.24,-0.33,0.46
8.098,1.01,0.55,0.18,1.16
8.108,1.25,0.20,-0.00,1.26
8.118,-0.09,-0.48,0.02,0.48
8.128,-0.71,-0.51,-0.16,0.89
8.139,0.13,-0.70,0.10,0.72
8.149,0.51,0.09,0.70,0.87
8.159,1.14,0.70,-0.09,1.34
8.169,0.81,1.28,-0.74,1.69
8.179,-0.18,0.52,-0.00,0.55
8.189,-1.09,-0.38,-0.04,1.15
8.199,-1.80,-0.60,0.14,1.90
8.209,-0.75,-0.16,-0.58,0.96
8.219,-0.53,-1.01,-0.58,1.28
8.229,0.03,0.12,0.80,0.81
8.239,1.11,0.40,-0.01,1.18
8.249,0.21,-0.19,-0.53,0.61
8.260,-0.30,0.11,0.04,0.32
8.270,0.30,-0.36,0.27,0.54
8.280,1.39,0.54,0.55,1.59
8.290,0.75,0.12,-0.35,0.84
8.300,-0.02,-0.16,-0.45,0.48
8.310,-0.32,1.01,0.56,1.20
8.320,-1.57,-0.15,-0.10,1.58
8.330,-1.90,0.05,-0.94,2.12
8.340,-0.22,0.39,-0.44,0.63
8.350,0.37,-0.39,-0.07,0.54
8.360,0.67,-0.55,0.65,1.08
8.370,0.52,-0.41,0.52,0.84
8.381,-0.24,-0.33,-0.63,0.75
8.391,-0.67,-0.07,-0.40,0.78
8.401,-0.16,-0.18,0.28,0.37
8.411,1.45,0.65,0.64,1.72
8.421,1.58,0.98,-0.39,1.89
8.431,0.39,0.06,-0.21,0.44
8.441,-0.98,0.01,-0.05,0.98
8.451,-2.45,-0.09,0.17,2.46
8.461,-1.50,0.48,-0.71,1.72
8.471,-0.34,-0.30,-0.58,0.74
8.481,0.87,0.30,0.17,0.93
8.491,1.17,-0.42,0.43,1.32
8.501,0.31,-0.60,0.14,0.69
8.512,-1.19,-1.08,-0.37,1.65
8.522,-0.65,-0.76,-0.29,1.04
8.532,0.82,0.71,0.51,1.20
8.542,1.80,1.04,0.78,2.22
8.552,1.24,0.99,-0.95,1.85
8.562,0.56,1.00,-0.12,1.15
8.572,-0.85,0.33,0.14,0.93
8.582,-3.02,-0.85,0.03,3.14
8.592,-1.59,-0.19,-0.60,1.71
8.602,-0.06,-0.79,-0.42,0.90
8.612,1.16,0.34,0.44,1.29
8.623,0.71,-0.57,0.04,0.91
8.633,0.33,0.07,0.20,0.39
8.643,-0.39,-0.26,-0.40,0.62
8.653,-1.22,-0.97,-0.46,1.62
8.663,-0.10,0.24,0.71,0.75
8.673,1.43,0.36,0.50,1.56
8.683,1.91,1.18,-0.35,2.27
8.693,0.86,0.67,-0.48,1.19
8.703,-0.80,-0.08,0.04,0.80
8.713,-2.47,0.30,0.23,2.50
8.723,-2.41,-0.47,-0.73,2.56
8.733,-0.35,-0.35,-0.46,0.68
8.744,0.69,-0.29,0.03,0.75
8.754,1.43,-0.55,0.36,1.57
8.764,0.64,-0.23,0.50,0.85
8.774,-0.45,-0.50,-0.44,0.81
8.784,-0.71,-0.64,-0.57,1.11
8.794,-0.32,0.05,0.58,0.67
8.804,1.29,1.00,0.74,1.80
8.814,1.55,0.80,-1.01,2.01
8.824,0.86,0.76,-0.06,1.15
8.834,-0.92,0.31,0.31,1.02
8.844,-2.58,0.18,-0.05,2.59
8.855,-1.53,-0.06,-1.06,1.86
8.865,-0.58,-1.01,-0.36,1.22
8.875,0.63,0.14,0.70,0.95
8.885,0.92,-0.89,0.03,1.28
8.895,0.59,-0.13,0.34,0.69
8.905,-0.37,-0.20,-0.42,0.60
8.915,-0.45,-0.62,-0.46,0.90
8.925,1.05,0.91,0.84,1.63
8.935,1.06,0.62,0.27,1.26
8.945,0.30,0.18,-0.91,0.97
8.955,0.63,1.02,0.35,1.25
8.966,-1.16,-0.11,0.05,1.17
8.976,-2.48,0.08,-0.29,2.50
8.986,-1.18,0.07,-0.77,1.41
8.996,0.15,-0.63,-0.58,0.86
9.006,0.84,-0.21,0.61,1.06
9.016,0.56,-0.84,0.76,1.27
9.026,0.13,-0.36,-0.32,0.49
9.036,-0.18,0.15,-0.28,0.36
9.046,-0.31,-0.08,-0.30,0.44
9.056,0.96,0.79,0.68,1.42
9.066,1.42,1.01,-0.04,1.75
9.076,0.60,0.18,-0.55,0.83
9.086,-0.30,0.10,0.28,0.42
9.096,-1.35,-0.33,0.19,1.40
9.107,-2.11,-0.26,-0.51,2.18
9.117,-0.93,0.28,-0.62,1.15
9.127,0.07,0.14,-0.31,0.35
9.137,0.64,-0.06,0.29,0.70
9.147,0.71,-0.54,0.37,0.97
9.157,-0.19,-0.98,-0.25,1.03
9.167,-0.32,-0.37,-0.01,0.49
9.177,0.40,0.21,0.26,0.52
9.187,1.10,0.50,0.47,1.30
9.197,1.23,1.22,-0.52,1.81
9.207,0.66,0.99,-0.37,1.25
9.218,-0.55,-0.02,0.33,0.64
9.228,-1.98,-1.18,-0.27,2.32
9.238,-1.65,-0.24,0.07,1.67
9.248,-0.72,-0.07,-0.67,0.99
9.258,0.35,-0.01,-0.23,0.42
9.268,0.72,0.41,0.35,0.90
9.278,0.47,-0.13,0.07,0.49
9.288,0.00,0.16,-0.29,0.33
9.298,-0.94,-1.10,-0.13,1.45
9.308,-0.06,-0.49,0.29,0.57
9.318,1.48,0.38,0.79,1.72
9.329,1.16,0.45,-0.41,1.31
9.339,1.00,0.91,-0.38,1.41
9.349,-0.46,0.30,-0.03,0.56
9.359,-1.97,0.35,0.15,2.01
9.369,-2.30,-0.08,-0.27,2.32
9.379,-1.11,-0.50,-1.23,1.73
9.389,0.66,-0.10,0.29,0.73
9.399,1.10,-0.35,0.45,1.24
9.409,0.61,-0.46,0.33,0.83
9.419,0.19,-0.14,-0.10,0.26
9.429,-0.44,-0.57,-0.93,1.18
9.439,-0.37,-0.26,0.09,0.46
9.450,0.98,1.10,1.63,2.20
9.460,1.20,0.05,-1.09,1.62
9.470,0.45,0.38,0.29,0.66
9.480,0.80,1.45,-0.49,1.73
9.490,-3.05,-1.97,0.49,3.67
9.500,-0.97,1.79,-1.31,2.42
9.510,-1.61,-1.45,-0.05,2.17
9.520,-0.51,0.73,-0.36,0.96
9.530,1.69,-0.23,1.39,2.20
9.540,1.72,-0.63,-0.38,1.87
9.550,-0.43,-0.10,0.27,0.52
9.560,-0.80,-0.80,-1.18,1.63
9.571,-0.12,-0.10,0.56,0.58
9.581,1.10,0.92,0.90,1.69
9.591,0.77,0.25,-1.22,1.46
9.601,1.08,0.58,0.70,1.41
9.611,0.00,1.51,-0.13,1.51
9.621,-2.58,-1.39,-0.46,2.96
9.631,-1.92,0.52,-0.16,1.99
9.641,-0.23,-0.43,-1.17,1.27
9.651,0.88,-0.53,0.70,1.24
9.661,0.25,-0.27,0.77,0.85
9.672,-0.06,-0.82,-0.31,0.88
9.681,0.35,0.57,-0.44,0.80
9.692,-0.90,-0.92,-0.31,1.32
9.702,0.83,0.46,0.48,1.06
9.712,1.83,1.04,0.83,2.27
9.722,0.76,0.64,-0.96,1.38
9.732,0.12,0.52,0.21,0.57
9.742,-1.29,-0.20,-0.45,1.38
9.752,-2.04,-0.55,0.22,2.13
9.762,-1.47,0.04,-0.27,1.49
9.772,-0.37,-0.75,-0.87,1.21
9.782,0.85,0.16,0.37,0.94
9.792,0.95,0.02,0.41,1.03
9.803,0.19,-0.16,-0.04,0.25
9.813,-0.40,0.12,-0.19,0.46
9.823,0.02,-0.30,-0.35,0.46
9.833,0.38,-0.09,0.41,0.57
9.843,1.45,0.64,0.36,1.62
9.853,0.93,0.59,-0.38,1.17
9.863,-0.11,0.28,0.08,0.31
9.873,-1.43,-0.17,-0.32,1.47
9.883,-1.87,-0.10,0.08,1.87
9.893,-1.10,0.29,-0.69,1.33
9.903,0.13,-0.11,-0.29,0.34
9.913,0.35,-0.06,0.31,0.47
9.924,0.64,-0.28,0.11,0.71
9.934,0.38,-0.37,0.08,0.54
9.944,-1.07,-0.78,-0.28,1.35
9.954,-0.59,-0.58,-0.03,0.83
9.964,1.38,0.91,0.82,1.85
9.974,1.53,0.88,-0.16,1.77
9.984,0.97,0.64,-0.73,1.37
9.994,0.12,0.63,0.30,0.71
10.004,-1.69,-0.62,-0.07,1.80
10.014,-2.28,-0.50,-0.11,2.33
10.024,-1.39,-0.14,-0.55,1.50
10.035,0.28,0.27,-0.69,0.79
10.045,1.16,0.34,0.82,1.46
10.055,0.88,-0.41,-0.32,1.02
10.065,-0.23,-0.59,0.55,0.84
10.075,-0.40,-0.18,-0.68,0.81
10.085,-1.07,-1.10,0.07,1.54
10.095,0.72,0.53,0.69,1.13
10.105,2.36,1.42,0.13,2.76
10.115,0.74,0.69,-0.82,1.30
10.125,0.16,0.57,0.08,0.60
10.135,-1.29,-0.37,0.14,1.35
10.145,-2.41,-0.89,-0.13,2.57
10.155,-1.12,-0.19,-0.58,1.27
10.166,-0.42,-0.14,-0.33,0.56
10.176,0.48,0.58,0.37,0.84
10.186,1.20,-0.12,-0.19,1.22
10.196,0.34,-0.20,0.17,0.43
10.206,-0.48,-0.48,-0.23,0.72
10.216,0.09,-0.61,0.06,0.62
10.226,0.61,0.00,0.66,0.90
10.236,1.01,0.27,-0.18,1.06
10.246,0.49,1.38,-0.18,1.48
10.256,0.10,0.84,-0.21,0.87
10.266,-1.03,-0.69,-0.38,1.29
10.276,-1.29,0.14,0.32,1.34
10.287,-1.06,-0.62,-0.78,1.45
10.297,-0.44,-0.59,-0.17,0.75
10.307,0.08,0.19,0.44,0.49
10.317,0.63,-0.31,-0.06,0.71
10.327,0.32,0.47,-0.07,0.57
10.337,-0.19,-0.42,-0.41,0.62
10.347,-0.03,-0.35,0.19,0.40
10.357,1.24,0.50,0.94,1.63
10.367,1.16,0.29,-0.54,1.31
10.377,0.27,0.19,-0.47,0.57
10.387,-0.36,0.59,0.68,0.97
10.398,-1.52,0.15,-0.59,1.63
10.408,-2.26,-0.48,0.10,2.31
10.418,-0.16,0.70,-1.26,1.45
10.428,0.01,-0.66,0.25,0.70
10.438,0.82,0.07,0.37,0.90
10.448,0.36,-1.14,0.26,1.23
10.458,-0.26,-0.09,-0.25,0.37
10.468,-0.17,-0.20,-0.24,0.36
10.478,0.06,-0.34,-0.08,0.36
10.488,0.89,0.86,1.05,1.62
10.498,1.62,0.95,-0.54,1.95
10.509,0.63,0.60,-0.48,0.99
10.519,-0.75,0.33,0.24,0.85
10.529,-1.95,-0.38,-0.09,1.99
10.539,-1.74,0.17,-0.32,1.77
10.549,-0.33,-0.20,-0.63,0.74
10.559,0.32,-0.16,-0.12,0.38
10.569,0.71,-0.11,0.49,0.87
10.579,0.72,-0.40,0.13,0.84
10.589,-0.72,-0.55,-0.25,0.94
10.599,-0.97,-0.52,-0.30,1.14
10.609,0.00,-0.50,-0.23,0.55
10.619,1.21,0.71,1.01,1.73
10.629,1.89,0.86,0.22,2.08
10.640,0.81,0.51,-0.99,1.38
10.650,-0.18,0.60,0.23,0.67
10.660,-2.04,0.01,-0.09,2.04
10.670,-2.66,-0.28,-0.25,2.68
10.680,-0.96,-0.63,-0.84,1.42
10.690,0.88,0.19,0.10,0.91
10.700,1.12,-0.43,0.32,1.24
10.710,1.03,-0.32,0.35,1.13
10.720,-0.12,-0.42,-0.09,0.45
10.730,-1.26,-0.67,-0.53,1.52
10.740,-0.69,-0.07,0.11,0.71
10.751,0.50,-0.00,0.44,0.67
10.761,2.39,1.50,0.31,2.84
10.771,1.32,0.63,-0.76,1.65
10.781,-0.17,0.35,0.02,0.39
10.791,-1.73,0.66,0.53,1.93
10.801,-2.90,-0.54,-1.02,3.12
10.811,-1.10,-0.33,-0.66,1.33
10.821,0.40,0.08,0.33,0.53
10.831,1.08,-0.82,-0.12,1.36
10.841,1.03,-0.26,0.96,1.43
10.851,-0.03,-0.65,-0.53,0.84
10.861,-0.49,-0.71,-0.54,1.02
10.872,-0.35,0.00,0.41,0.54
10.882,0.58,0.52,0.71,1.06
10.892,1.31,1.14,-0.53,1.82
10.902,1.30,0.82,-0.49,1.62
10.912,-0.64,0.38,0.12,0.76
10.922,-1.90,0.44,0.55,2.02
10.932,-1.71,-0.15,-1.10,2.04
10.942,-1.09,-0.97,-0.85,1.69
10.952,0.46,-0.01,0.69,0.83
10.962,0.70,-1.17,-0.06,1.37
10.972,0.80,0.03,0.78,1.12
10.983,-0.08,-0.20,-0.27,0.35
10.992,-0.56,-0.38,-0.81,1.06
11.003,0.75,1.09,0.64,1.47
11.013,1.20,0.51,0.24,1.33
11.023,0.59,0.48,-0.62,0.98
11.033,0.45,0.88,0.56,1.14
11.043,-1.05,-0.15,-0.27,1.09
11.053,-2.25,-0.03,-0.31,2.27
11.063,-1.52,-0.17,-0.67,1.67
11.073,-0.20,-0.56,-0.49,0.77
11.083,0.74,-0.16,0.67,1.01
11.093,0.71,-0.88,0.20,1.15
11.104,0.47,-0.06,0.13,0.49
11.114,0.01,0.16,-0.37,0.40
11.124,-0.45,-0.25,-0.49,0.71
11.134,0.17,0.31,0.76,0.83
11.144,1.64,1.05,0.28,1.97
11.154,0.83,0.59,-0.62,1.19
11.164,-0.25,-0.26,-0.06,0.36
11.174,-0.64,-0.14,-0.05,0.66
11.184,-1.88,-0.15,0.35,1.92
11.195,-1.41,0.06,-0.72,1.58
11.205,-0.14,0.06,-0.61,0.63
11.215,0.40,0.45,0.10,0.61
11.225,0.79,-0.24,0.27,0.87
11.235,0.30,-0.48,0.02,0.56
11.245,-1.03,-1.09,0.01,1.50
11.255,0.10,-0.25,-0.43,0.51
11.265,0.57,0.01,0.51,0.76
11.275,1.43,0.90,0.76,1.86
11.285,1.27,0.88,-1.17,1.94
11.295,0.08,0.47,0.15,0.50
11.305,-1.07,0.38,0.09,1.14
11.315,-2.91,-1.17,-0.23,3.14
11.325,-1.20,0.31,-0.52,1.35
11.335,0.18,-0.19,-0.29,0.39
11.345,0.83,-0.23,0.07,0.87
11.356,1.01,-0.15,0.38,1.09
11.366,0.24,-0.51,0.09,0.57
11.376,-0.84,-0.43,-0.41,1.03
11.386,-1.21,-1.00,-0.31,1.60
11.396,1.19,0.57,0.96,1.63
11.406,1.92,1.09,0.16,2.22
11.416,0.97,0.26,-1.10,1.49
11.426,0.48,1.00,0.41,1.18
11.436,-1.59,0.28,0.40,1.66
11.446,-2.58,-0.03,-0.68,2.67
11.456,-1.67,-0.27,-0.93,1.93
11.467,0.11,-0.11,-0.23,0.28
11.477,0.93,-0.38,0.40,1.08
11.487,0.85,-0.51,0.70,1.21
11.497,0.42,-0.16,-0.25,0.52
11.507,-0.17,-0.54,-0.27,0.62
11.517,-0.04,0.01,-0.39,0.39
11.527,0.18,-0.26,1.22,1.26
11.537,1.21,1.41,-0.39,1.90
11.547,0.58,0.12,-0.56,0.82
11.557,0.25,0.90,-0.19,0.96
11.568,-1.28,0.21,0.74,1.49
11.577,-1.76,-0.12,-0.64,1.88
11.587,-1.14,-0.40,-0.83,1.47
11.597,-0.42,-0.26,-0.07,0.50
11.608,0.42,-0.38,0.11,0.58
11.618,0.97,-0.49,0.68,1.28
11.628,0.33,-0.27,-0.19,0.47
11.638,-0.44,-0.49,-0.60,0.89
11.648,0.09,0.20,0.42,0.47
11.658,0.97,0.70,0.50,1.30
11.668,0.81,0.57,-0.55,1.13
11.678,0.77,1.09,0.03,1.34
11.688,-0.15,0.46,0.01,0.48
11.699,-1.61,-0.54,-0.29,1.72
11.709,-1.92,-0.49,-0.17,1.99
11.719,-0.86,-0.40,-0.86,1.28
11.729,-0.03,-0.38,0.26,0.46
11.739,0.53,-0.30,0.31,0.68
11.749,0.89,0.17,0.17,0.92
11.759,0.49,0.51,-0.18,0.73
11.769,-0.67,-0.61,-0.75,1.18
11.779,-0.31,-0.26,0.52,0.66
11.789,1.39,0.72,0.68,1.71
11.799,1.08,0.36,-0.57,1.27
11.809,0.41,0.27,-0.04,0.49
11.820,-0.07,0.45,-0.02,0.46
11.830,-1.58,-0.49,-0.18,1.66
11.840,-1.69,0.33,0.27,1.74
11.850,-1.34,-0.43,-1.28,1.90
11.860,0.10,-0.12,-0.16,0.23
11.870,1.01,0.15,0.57,1.17
11.880,0.42,-1.06,0.09,1.14
11.890,-0.34,-0.25,0.21,0.47
11.900,0.07,-0.10,-0.55,0.56
11.910,-0.21,-0.36,0.10,0.43
11.920,1.26,1.00,0.83,1.81
11.930,1.25,0.37,-0.71,1.48
11.941,0.64,0.99,-0.04,1.17
11.951,-0.77,0.11,0.35,0.86
11.961,-1.93,-0.49,-0.54,2.06
11.971,-1.74,-0.13,-0.09,1.75
11.981,-0.33,0.05,-0.85,0.92
11.991,0.23,-0.34,0.11,0.43
12.001,0.84,-0.15,0.49,0.99
12.011,0.52,-0.39,-0.06,0.65
12.021,-0.48,-0.16,-0.05,0.50
12.031,-0.93,-0.65,-0.41,1.20
12.041,0.72,0.43,0.50,0.98
12.052,1.46,0.83,0.47,1.74
12.062,1.35,0.56,-0.97,1.75
12.072,0.56,0.56,0.35,0.87
12.082,-0.93,0.08,0.14,0.94
12.092,-2.33,-0.91,-0.30,2.52
12.102,-2.01,0.13,-0.48,2.07
12.112,-0.21,0.10,-0.64,0.68
12.122,0.59,0.09,0.07,0.60
12.132,0.97,-0.23,0.50,1.12
12.142,0.61,-0.41,0.02,0.73
12.152,-0.09,0.02,-0.19,0.22
12.162,-0.87,-0.97,-0.37,1.35
12.173,0.10,-0.31,0.77,0.83
12.183,1.86,1.91,0.36,2.69
12.193,0.90,0.64,-0.80,1.37
12.203,0.35,0.60,-0.38,0.79
12.213,-0.73,-0.09,0.42,0.85
12.223,-1.83,-1.00,-0.10,2.09
12.233,-1.57,-0.12,-0.41,1.63
12.243,-0.76,-0.39,-0.40,0.95
12.253,0.24,0.38,-0.15,0.47
12.263,0.80,0.30,0.33,0.91
12.273,0.69,-0.19,-0.03,0.72
12.283,-0.22,-0.32,-0.43,0.58
12.293,-0.45,-0.85,0.31,1.01
12.303,0.78,0.01,0.19,0.81
12.314,1.05,0.31,0.62,1.25
12.324,0.88,1.19,-0.74,1.66
12.334,0.16,0.65,-0.14,0.69
12.344,-0.89,0.39,-0.17,0.99
12.354,-1.73,-0.98,-0.01,1.99
12.364,-1.15,-0.30,-0.33,1.24
12.374,-0.67,-0.37,-0.49,0.91
12.384,-0.13,-0.71,0.20,0.75
12.394,0.92,0.34,0.16,0.99
12.404,0.71,0.35,1.46,1.66
12.415,0.38,-0.25,0.87,0.98
12.425,-0.83,-0.09,-1.65,1.84
12.435,0.40,0.05,-2.09,2.13
12.445,1.46,0.77,-1.75,2.40
12.458,0.39,0.17,1.26,1.33
