time,ax,ay,az,atotal
0.000,-0.25,2.12,-2.90,3.60
0.010,-2.52,0.45,2.86,3.84
0.020,-1.92,-0.69,3.19,3.78
0.030,-0.28,-0.74,1.11,1.36
0.040,0.14,-1.27,0.24,1.30
0.050,1.09,-0.24,-2.95,3.16
0.061,0.40,-0.26,-1.32,1.40
0.071,-0.78,-0.90,0.81,1.44
0.081,-0.41,-0.24,1.58,1.65
0.091,0.61,0.59,0.87,1.21
0.101,0.86,0.71,0.17,1.13
0.111,1.57,1.57,-2.43,3.29
0.121,0.67,0.25,-0.39,0.81
0.131,-0.79,0.77,0.98,1.48
0.141,-2.67,-0.16,0.87,2.82
0.151,-2.03,-0.23,-0.87,2.22
0.161,-0.21,0.02,-1.40,1.41
0.171,0.77,-0.26,-0.12,0.83
0.182,0.90,-0.57,0.50,1.18
0.192,0.33,-0.73,1.02,1.30
0.202,-0.40,-0.46,-0.18,0.64
0.212,-1.23,-0.72,-0.87,1.67
0.222,0.56,0.68,0.13,0.89
0.232,1.89,1.54,0.80,2.57
0.242,1.10,1.07,-0.75,1.71
0.252,0.42,0.84,0.18,0.96
0.262,-1.06,1.08,0.15,1.52
0.272,-2.76,-0.39,-0.53,2.83
0.282,-1.97,-0.67,-1.27,2.44
0.293,0.04,-0.35,0.05,0.36
0.303,1.36,-0.52,0.87,1.69
0.313,0.63,-0.53,0.21,0.85
0.323,0.30,0.06,-0.03,0.31
0.333,-0.11,0.01,-0.77,0.78
0.343,-1.16,-0.17,-0.33,1.22
0.353,0.27,0.38,0.92,1.04
0.363,1.91,1.06,0.25,2.20
0.373,1.18,0.59,-0.75,1.52
0.383,0.47,0.94,0.28,1.08
0.393,-1.69,0.09,-0.08,1.69
0.403,-2.83,-0.09,-0.60,2.90
0.413,-1.50,-0.28,-0.68,1.67
0.424,-0.17,-0.46,0.12,0.50
0.434,1.17,0.05,0.21,1.19
0.444,1.02,-0.92,0.13,1.38
0.454,0.09,0.20,0.12,0.25
0.464,-0.72,-0.64,-0.39,1.04
0.474,-0.85,-0.51,-0.42,1.08
0.484,0.25,0.75,0.90,1.19
0.494,1.61,1.00,0.31,1.92
0.504,1.45,1.20,-0.91,2.09
0.514,0.14,0.56,-0.29,0.65
0.524,-0.79,0.50,0.53,1.07
0.534,-2.68,-0.23,-0.07,2.69
0.545,-1.84,-0.74,-1.22,2.33
0.555,0.05,-0.21,-0.19,0.29
0.565,0.73,-0.32,0.41,0.89
0.575,0.81,-0.51,0.40,1.04
0.585,-0.13,-0.39,-0.20,0.45
0.595,-0.36,-0.29,-0.27,0.54
0.605,-0.32,-0.25,-0.30,0.51
0.615,0.69,0.62,1.03,1.38
0.625,1.78,1.40,-0.01,2.26
0.635,0.60,0.99,-0.80,1.41
0.645,0.05,1.36,0.23,1.38
0.655,-1.69,-0.47,-0.33,1.79
0.665,-2.30,-0.22,-0.22,2.32
0.676,-1.13,-0.20,-0.24,1.18
0.686,-0.08,-1.18,-0.64,1.34
0.696,1.10,-0.01,0.55,1.23
0.706,0.70,-0.60,0.19,0.94
0.716,-0.44,-0.47,-0.05,0.65
0.726,-0.39,0.67,-0.21,0.80
0.736,0.09,0.12,-0.11,0.19
0.746,0.71,0.69,0.24,1.02
0.756,1.80,1.14,0.01,2.13
0.766,0.83,0.44,-0.28,0.98
0.777,-0.84,0.09,0.32,0.90
0.787,-1.95,-0.01,0.06,1.95
0.797,-2.59,-0.17,-1.19,2.86
0.807,-0.46,0.20,-0.36,0.62
0.817,0.40,-0.11,0.12,0.43
0.827,0.77,-0.49,0.34,0.98
0.837,1.00,0.08,0.25,1.03
0.847,-0.41,-0.70,-0.30,0.87
0.857,-0.88,-0.47,-0.44,1.09
0.867,0.09,0.26,0.55,0.61
0.877,1.23,1.14,0.54,1.76
0.887,1.17,0.88,-0.67,1.61
0.897,0.51,0.76,-0.43,1.01
0.908,-0.45,0.48,0.30,0.73
0.918,-2.37,-0.72,0.06,2.47
0.928,-2.06,-0.27,-0.66,2.18
0.938,-0.31,-0.08,-0.43,0.54
0.948,0.90,0.37,0.00,0.98
0.958,0.75,-0.02,0.11,0.76
0.968,0.46,0.03,0.26,0.53
0.978,-0.08,0.22,-0.54,0.59
0.988,-1.58,-1.43,0.42,2.17
0.998,-0.03,0.12,-0.08,0.15
1.009,2.02,-0.13,0.69,2.14
1.018,1.57,1.61,-0.54,2.32
1.029,0.37,1.02,0.02,1.09
1.039,-0.91,0.56,-0.49,1.17
1.049,-2.38,0.43,0.07,2.42
1.059,-2.01,-0.58,-0.64,2.19
1.069,-0.55,-0.54,-0.59,0.97
1.079,0.58,-0.12,0.74,0.95
1.089,1.08,-0.79,-0.23,1.36
1.099,0.29,0.11,0.34,0.46
1.109,-0.29,-0.40,-0.26,0.56
1.119,-0.74,-0.32,-0.68,1.06
1.129,-0.22,0.05,0.40,0.46
1.140,1.14,0.58,0.82,1.52
1.150,1.65,1.26,-0.22,2.08
1.160,0.75,0.89,-0.88,1.46
1.170,-0.07,0.91,0.38,0.99
1.180,-2.03,-0.94,-0.16,2.24
1.190,-2.05,-0.17,-0.39,2.09
1.200,-0.59,-0.01,-0.54,0.80
1.210,-0.57,-0.80,0.03,0.98
1.220,0.49,-0.08,0.21,0.54
1.230,0.90,-0.25,-0.12,0.94
1.241,0.12,0.12,-0.05,0.17
1.251,-0.35,-0.81,0.08,0.88
1.261,0.09,0.19,-0.02,0.21
1.271,1.13,0.93,0.64,1.60
1.281,0.64,0.67,-0.63,1.12
1.291,0.35,1.16,-0.13,1.21
1.301,-0.64,0.58,0.00,0.87
1.311,-1.96,0.12,-0.24,1.98
1.321,-1.64,-0.11,-0.43,1.70
1.331,-0.35,-0.62,-0.69,0.99
1.341,0.76,-0.43,0.50,1.01
1.351,0.59,-0.71,0.27,0.96
1.362,-0.10,-0.16,0.31,0.37
1.372,-0.12,0.44,-0.58,0.74
1.382,-0.46,-0.35,-0.57,0.81
1.392,0.24,0.32,0.54,0.67
1.402,1.80,0.93,0.76,2.17
1.412,0.98,0.44,-0.76,1.31
1.422,-0.13,0.46,0.13,0.49
1.432,-1.24,0.61,0.10,1.38
1.442,-2.73,-0.07,-0.71,2.82
1.452,-1.14,0.73,-0.58,1.47
1.462,0.03,-0.30,-0.02,0.31
1.472,0.85,-0.44,-0.06,0.96
1.482,1.06,-0.22,0.64,1.26
1.493,-0.09,-1.07,-0.14,1.08
1.503,-0.79,-0.47,-0.39,1.00
1.513,-0.44,-0.66,-0.02,0.79
1.523,0.26,0.77,0.13,0.83
1.533,1.41,1.22,0.98,2.11
1.543,1.58,1.29,-0.89,2.22
1.553,-0.18,0.78,-0.55,0.97
1.563,-1.47,0.34,0.29,1.54
1.573,-2.54,-0.17,-0.10,2.54
1.583,-1.33,-0.70,-0.73,1.67
1.593,0.62,0.04,0.05,0.62
1.603,0.99,-0.16,0.29,1.04
1.614,0.60,-0.44,-0.05,0.74
1.624,0.02,-0.25,0.03,0.25
1.634,-0.72,-0.58,-0.50,1.05
1.644,-1.06,-0.58,-0.00,1.20
1.654,0.35,0.07,0.19,0.40
1.664,1.36,0.85,0.80,1.80
1.674,1.75,1.16,-0.50,2.16
1.684,0.45,0.71,-0.54,0.99
1.694,-1.27,1.24,0.56,1.86
1.704,-2.79,0.23,-0.67,2.88
1.714,-1.77,-0.45,-0.94,2.05
1.725,0.16,0.09,0.42,0.46
1.735,0.79,-1.23,-0.27,1.49
1.745,1.07,-0.18,0.71,1.30
1.755,0.30,-0.45,0.05,0.54
1.765,-0.76,-1.25,-0.82,1.68
1.775,-0.83,0.00,0.04,0.83
1.785,-0.23,-0.11,0.35,0.43
1.795,1.17,1.08,0.64,1.71
1.805,1.56,1.10,-0.56,1.99
1.815,0.83,0.73,-0.80,1.37
1.825,-0.77,1.56,0.86,1.94
1.835,-2.57,0.17,-0.44,2.61
1.846,-1.75,-0.72,-1.15,2.22
1.855,-0.32,0.34,0.47,0.66
1.866,0.63,-1.08,-0.32,1.29
1.876,0.70,-1.05,0.40,1.33
1.886,0.36,-0.32,0.62,0.79
1.896,-0.51,-1.06,-0.87,1.47
1.906,-0.67,-0.21,-0.21,0.74
1.916,0.28,0.28,0.59,0.72
1.926,1.58,1.15,0.48,2.01
1.936,1.03,1.53,-0.57,1.93
1.946,-0.09,0.97,-0.43,1.07
1.957,-1.12,1.55,0.24,1.92
1.967,-2.15,0.31,-0.29,2.19
1.977,-0.94,-0.62,-1.07,1.56
1.987,0.32,-0.59,0.27,0.72
1.997,0.75,-0.91,0.50,1.28
2.007,-0.14,-1.28,0.39,1.35
2.017,-0.31,-0.29,-0.45,0.62
2.027,-0.53,-0.62,-0.58,1.00
2.037,-0.49,-0.06,-0.03,0.49
2.047,1.23,0.96,1.16,1.94
2.057,2.29,1.58,-0.04,2.78
2.067,0.51,0.81,-0.90,1.32
2.077,-0.35,0.96,0.16,1.04
2.088,-1.90,0.90,0.22,2.11
2.098,-2.47,-0.37,-0.72,2.60
2.108,-0.62,-0.23,-0.64,0.92
2.118,0.13,-0.82,0.04,0.83
2.128,0.90,-0.74,0.47,1.26
2.138,0.39,-0.87,0.40,1.03
2.148,-0.58,-0.68,-0.34,0.96
2.158,-0.42,-0.39,-0.64,0.86
2.168,0.17,0.60,0.29,0.69
2.178,1.25,1.44,0.98,2.14
2.188,1.63,1.25,-0.56,2.12
2.198,0.49,0.81,-0.92,1.32
2.209,-0.45,0.61,0.83,1.12
2.219,-2.35,-0.63,-0.34,2.45
2.229,-2.71,-1.02,-0.50,2.94
2.239,0.26,0.53,-0.25,0.64
2.249,0.48,-0.70,-0.15,0.86
2.259,0.94,0.38,0.39,1.09
2.269,0.73,0.05,0.25,0.77
2.279,-0.91,-0.50,-0.66,1.23
2.289,-0.80,-0.28,-0.06,0.85
2.299,0.15,-0.59,-0.00,0.61
2.310,1.39,0.61,0.87,1.75
2.319,1.76,1.24,0.15,2.16
2.330,0.57,0.93,-0.85,1.38
2.340,-0.96,0.85,-0.01,1.28
2.350,-2.48,0.07,-0.23,2.49
2.360,-2.22,-0.34,-0.64,2.34
2.370,-0.34,-0.20,0.47,0.61
2.380,0.94,-0.47,-0.66,1.24
2.390,0.77,-0.87,0.62,1.32
2.400,0.45,-0.08,0.18,0.49
2.410,-0.58,-0.63,-0.48,0.98
2.420,-0.84,-0.08,-0.21,0.87
2.430,-0.13,0.36,0.48,0.61
2.441,1.60,1.03,0.42,1.95
2.451,1.56,0.88,-0.79,1.96
2.461,0.77,0.78,-0.01,1.10
2.471,-0.69,0.59,0.66,1.13
2.481,-2.69,-0.12,-0.50,2.73
2.491,-2.30,-0.18,-0.98,2.50
2.501,-0.43,-0.16,-0.40,0.61
2.511,0.70,-0.23,0.32,0.80
2.521,1.01,-0.90,0.33,1.40
2.531,0.70,-0.12,0.43,0.83
2.541,-0.80,-0.94,-0.62,1.38
2.551,-0.85,-0.21,-0.36,0.95
2.562,0.44,0.51,0.73,0.99
2.572,1.36,1.01,0.49,1.76
2.582,1.32,1.57,-0.70,2.17
2.592,0.39,0.84,-0.21,0.95
2.602,-0.84,0.45,-0.00,0.95
2.612,-2.34,-0.41,0.17,2.38
2.622,-1.76,-0.48,-0.83,2.00
2.632,-0.23,-0.92,-0.61,1.13
2.642,0.49,-0.18,0.69,0.86
2.652,0.39,-0.81,0.12,0.90
2.662,0.48,0.19,0.11,0.53
2.672,-0.03,0.66,-0.33,0.74
2.683,-0.86,-0.72,-0.78,1.37
2.692,0.72,0.50,1.07,1.38
2.702,1.74,1.09,0.40,2.09
2.713,0.69,0.22,-0.67,0.99
2.723,0.36,1.08,0.20,1.16
2.733,-1.49,-0.16,-0.35,1.54
2.743,-2.50,0.29,-0.29,2.53
2.753,-1.51,-0.07,-0.23,1.53
2.763,-0.25,-0.70,-0.79,1.09
2.773,1.05,0.14,0.73,1.29
2.783,1.20,-0.60,0.12,1.35
2.793,-0.07,-0.49,0.07,0.50
2.804,-0.59,-0.17,-0.20,0.65
2.814,-0.56,-0.15,-0.46,0.74
2.824,0.17,0.47,0.64,0.81
2.834,1.67,0.74,0.19,1.84
2.844,1.24,1.15,-0.66,1.81
2.854,-0.18,0.52,0.49,0.74
2.864,-1.51,-0.13,-0.50,1.60
2.874,-2.56,-0.15,-0.09,2.57
2.884,-0.61,0.28,-0.62,0.91
2.894,0.17,-0.39,-0.18,0.46
2.904,0.57,0.01,0.55,0.80
2.915,0.81,-0.29,-0.05,0.86
2.925,-0.33,-0.27,-0.17,0.46
2.935,-0.94,-0.51,-0.12,1.08
2.945,-0.01,-0.39,-0.26,0.46
2.955,1.06,0.89,1.02,1.72
2.965,1.92,1.38,0.19,2.37
2.975,0.53,0.40,-1.03,1.23
2.985,-0.54,0.87,-0.15,1.04
2.995,-1.69,-0.00,0.42,1.74
3.005,-2.67,-0.46,-0.55,2.77
3.015,-1.06,-0.24,-0.41,1.16
3.025,0.68,-0.41,-0.29,0.84
3.036,0.96,0.06,0.34,1.01
3.046,0.54,-0.69,0.20,0.90
3.056,-0.01,-0.03,0.30,0.30
3.066,-0.66,-0.07,-0.51,0.83
3.076,-1.18,-1.09,-0.42,1.66
3.086,0.68,0.81,0.75,1.30
3.096,2.20,1.24,0.34,2.55
3.106,1.15,1.07,-0.57,1.67
3.116,0.08,0.66,-0.07,0.67
3.126,-1.49,-0.06,-0.20,1.50
3.136,-2.72,-0.31,-0.14,2.74
3.146,-1.44,-0.52,-0.65,1.66
3.157,0.03,-0.12,0.03,0.13
3.166,0.85,-0.27,0.02,0.89
3.177,1.02,-0.08,0.33,1.08
3.187,0.18,-0.33,-0.10,0.38
3.197,-0.42,-0.27,0.01,0.50
3.207,-0.24,-0.01,-0.06,0.25
3.217,0.22,0.00,0.12,0.25
3.227,1.48,2.01,0.54,2.55
3.237,0.61,0.97,-0.98,1.51
3.247,-0.05,0.76,-0.10,0.77
3.257,-1.06,-0.06,0.33,1.11
3.267,-1.76,-0.78,-0.34,1.96
3.278,-0.37,0.45,-0.49,0.76
3.288,-0.51,-1.00,0.11,1.13
3.298,-0.41,-0.29,-0.12,0.52
3.308,0.40,-0.10,0.23,0.47
3.318,0.24,-0.51,-0.49,0.75
3.328,-0.31,-0.26,0.32,0.52
3.338,0.24,-0.21,0.33,0.46
3.348,0.94,0.12,0.03,0.95
3.358,0.87,0.91,-0.16,1.27
3.368,0.57,1.01,0.19,1.18
3.378,-0.57,0.33,-0.40,0.77
3.388,-1.66,1.26,0.12,2.09
3.399,-1.97,-0.44,-0.51,2.08
3.409,-0.82,-0.33,-1.32,1.59
3.419,0.41,-0.28,1.07,1.18
3.429,0.89,-1.16,0.10,1.47
3.439,0.47,-0.04,0.37,0.60
3.449,-0.26,0.05,-0.16,0.32
3.459,-0.53,-0.12,-0.90,1.05
3.469,-0.07,0.38,0.42,0.57
3.479,1.13,0.76,0.71,1.54
3.489,1.22,0.70,-0.33,1.45
3.499,0.40,0.35,-0.34,0.64
3.510,-0.82,0.12,0.25,0.86
3.519,-2.10,-0.17,-0.43,2.15
3.530,-1.70,0.50,-0.06,1.78
3.540,-0.33,0.38,-0.73,0.88
3.550,0.52,-0.22,0.10,0.57
3.560,1.32,0.14,0.12,1.33
3.570,0.19,-0.63,0.33,0.74
3.580,-0.95,-1.01,-0.16,1.40
3.590,-0.46,-0.67,-0.30,0.86
3.600,-0.09,-0.20,0.03,0.22
3.610,1.01,0.64,0.71,1.39
3.620,1.79,1.38,0.17,2.27
3.631,0.58,1.16,-0.81,1.53
3.641,-0.79,0.77,-0.13,1.11
3.651,-2.44,0.28,-0.08,2.46
3.661,-2.08,-0.16,-0.32,2.11
3.671,-0.35,-0.78,-0.56,1.02
3.681,0.74,-0.16,0.51,0.92
3.691,1.37,-0.22,0.16,1.39
3.701,0.38,-0.67,0.02,0.77
3.711,-0.84,-0.35,-0.37,0.99
3.721,-0.89,-0.62,-0.20,1.10
3.731,-0.57,-0.07,0.02,0.58
3.742,0.52,0.10,0.42,0.68
3.752,2.22,1.25,0.65,2.63
3.762,1.42,0.98,-0.91,1.95
3.772,-0.24,0.54,0.01,0.59
3.782,-2.14,1.34,0.42,2.56
3.792,-2.97,-0.43,-1.18,3.22
3.802,-0.83,-0.39,-0.53,1.06
3.812,0.30,-0.70,0.43,0.87
3.822,1.17,-0.74,0.08,1.39
3.832,0.94,-0.08,0.82,1.25
3.842,0.03,-0.83,-0.63,1.04
3.852,-0.69,-0.75,-0.63,1.20
3.863,-0.73,0.07,0.61,0.95
3.873,0.71,1.09,0.77,1.51
3.883,1.46,1.21,-0.52,1.96
3.893,1.22,1.12,-0.77,1.83
3.903,-0.39,0.99,0.40,1.14
3.913,-2.38,0.48,0.20,2.44
3.923,-1.63,-0.50,-1.14,2.05
3.933,-0.70,-0.29,0.19,0.78
3.943,0.04,-0.70,-0.06,0.71
3.953,1.07,-0.66,-0.02,1.26
3.963,0.47,-0.30,0.59,0.81
3.973,-0.61,-0.83,-0.39,1.10
3.983,-0.27,-0.24,-0.40,0.55
3.994,0.29,0.02,0.40,0.49
4.003,1.19,0.78,0.61,1.55
4.014,1.12,1.08,-0.23,1.57
4.024,0.19,0.98,-0.68,1.21
4.034,-1.19,1.52,0.36,1.97
4.044,-2.33,0.32,-0.44,2.39
4.054,-1.18,-0.37,-0.92,1.54
4.064,0.16,-0.18,0.23,0.34
4.074,0.53,-0.89,0.34,1.09
4.084,0.58,-0.87,0.22,1.07
4.094,-0.03,-0.60,0.10,0.61
4.105,-0.76,-0.72,-0.75,1.29
4.115,-0.55,-0.17,0.05,0.58
4.125,0.57,0.55,0.88,1.19
4.135,1.74,1.43,0.00,2.25
4.145,1.19,1.26,-0.71,1.87
4.155,0.31,0.98,-0.21,1.05
4.165,-1.45,0.32,0.37,1.53
4.175,-2.47,-0.13,-0.27,2.49
4.185,-1.24,-0.46,-0.74,1.52
4.195,-0.18,-0.46,-0.12,0.51
4.205,0.78,-0.19,0.34,0.87
4.215,1.10,-0.40,0.20,1.19
4.226,-0.28,-0.58,0.09,0.65
4.236,-0.64,-0.40,-0.65,1.00
4.246,-0.34,-0.32,-0.02,0.46
4.256,0.58,0.56,0.76,1.11
4.266,1.58,0.94,0.58,1.92
4.276,1.00,1.15,-1.00,1.82
4.286,0.20,0.89,-0.27,0.95
4.296,-1.74,0.04,0.25,1.76
4.306,-2.57,-0.16,-0.06,2.57
4.316,-1.38,-0.87,-0.97,1.90
4.326,0.47,0.20,0.24,0.56
4.336,0.92,-0.37,0.09,0.99
4.347,0.79,-0.55,0.14,0.97
4.357,-0.20,0.07,0.22,0.31
4.366,-1.03,-0.73,-0.51,1.36
4.377,-0.71,-0.25,-0.35,0.83
4.387,0.86,0.23,0.90,1.27
4.397,2.46,1.20,0.41,2.77
4.407,1.00,0.75,-0.76,1.46
4.417,-0.02,0.99,0.21,1.01
4.427,-1.98,0.80,-0.08,2.14
4.437,-2.92,-0.19,-0.64,3.00
4.448,-1.18,-0.07,-0.53,1.30
4.458,0.22,-0.87,-0.42,0.99
4.467,1.17,-0.60,0.95,1.63
4.478,0.57,-0.57,0.41,0.90
4.488,-0.00,-0.44,-0.55,0.71
4.498,-0.11,0.06,-0.30,0.33
4.508,-0.75,-0.30,0.04,0.80
4.518,0.81,1.11,0.88,1.63
4.528,1.67,1.08,-0.22,2.00
4.538,0.78,0.78,-0.82,1.38
4.548,-0.06,0.95,0.56,1.11
4.558,-1.99,0.02,-0.04,1.99
4.568,-2.43,-0.12,-0.71,2.53
4.579,-0.72,-0.42,-0.48,0.96
4.588,0.05,-0.80,-0.19,0.82
4.599,0.73,-0.54,0.71,1.15
4.609,1.10,-0.33,0.15,1.16
4.619,-0.45,-0.57,-0.20,0.76
4.629,-0.62,0.13,-0.40,0.75
4.639,0.14,0.23,0.32,0.42
4.649,1.35,1.37,0.53,2.00
4.659,1.30,1.15,-0.22,1.75
4.669,0.61,0.98,-0.55,1.28
4.679,-0.84,0.08,0.27,0.89
4.689,-2.22,-0.22,-0.10,2.24
4.699,-2.12,-0.57,-0.60,2.27
4.710,-0.24,-0.64,-0.48,0.83
4.720,0.34,-0.32,0.33,0.57
4.730,0.71,-0.27,0.35,0.84
4.740,0.84,0.38,0.02,0.92
4.750,-0.54,-0.01,-0.42,0.68
4.760,-0.90,-0.55,-0.36,1.11
4.770,0.10,-0.26,0.21,0.34
4.780,1.54,0.72,1.01,1.98
4.790,1.50,0.80,-0.27,1.72
4.800,0.35,0.63,-0.50,0.88
4.810,-0.84,0.82,-0.01,1.17
4.820,-2.23,-0.03,-0.33,2.25
4.831,-1.83,-0.14,-0.21,1.84
4.841,-0.38,-0.21,-0.46,0.64
4.851,0.68,-0.50,0.26,0.88
4.861,0.93,-0.12,0.06,0.94
4.871,-0.06,-0.59,0.35,0.69
4.881,-0.28,-0.22,-0.33,0.48
4.891,-0.41,-0.16,-0.37,0.58
4.901,0.40,0.54,0.60,0.90
4.911,1.31,0.84,0.43,1.62
4.921,1.00,0.83,-0.57,1.42
4.931,0.33,0.81,-0.25,0.91
4.941,-1.17,-0.08,0.18,1.18
4.952,-2.32,-0.04,-0.07,2.32
4.962,-1.89,-0.49,-0.74,2.09
4.972,0.23,-0.02,-0.39,0.45
4.982,0.62,-0.21,0.30,0.71
4.992,0.69,-0.56,0.25,0.92
5.002,0.26,-0.21,0.14,0.36
5.012,-0.80,-0.33,-0.26,0.90
5.022,-0.77,-0.30,-0.47,0.95
5.032,0.39,0.13,0.51,0.65
5.042,2.01,1.53,0.71,2.62
5.052,1.33,0.73,-0.63,1.64
5.063,0.24,0.48,-0.33,0.63
5.073,-1.06,0.49,0.21,1.19
5.083,-2.89,-0.81,-0.02,3.01
5.093,-1.81,-0.07,-0.81,1.98
5.103,0.03,-0.24,-0.21,0.32
5.113,0.81,0.17,0.11,0.83
5.123,1.12,-0.36,0.33,1.22
5.133,0.51,0.09,0.22,0.56
5.143,-0.78,-0.25,-0.24,0.85
5.153,-1.05,-0.72,-0.70,1.45
5.163,0.12,0.61,0.94,1.13
5.173,1.85,1.18,0.35,2.22
5.183,1.40,0.84,-0.86,1.84
5.194,0.49,0.72,0.28,0.91
5.204,-1.15,-0.09,-0.10,1.16
5.214,-2.43,-0.55,-0.18,2.49
5.224,-1.72,-0.46,-0.35,1.82
5.234,-0.86,-0.50,-0.80,1.28
5.244,0.75,0.45,0.71,1.12
5.254,1.64,0.06,-0.13,1.65
5.264,0.13,-0.33,0.10,0.37
5.274,-0.47,0.06,-0.00,0.47
5.284,-0.31,-0.44,-0.48,0.72
5.295,-0.01,-0.06,0.44,0.44
5.304,1.39,1.06,0.91,1.97
5.315,1.14,0.88,-1.11,1.82
5.325,0.29,1.11,-0.01,1.15
5.335,-1.09,0.00,0.32,1.14
5.345,-2.42,-0.76,-0.54,2.59
5.355,-0.95,0.62,-0.44,1.22
5.365,-0.42,-0.95,-0.18,1.06
5.375,-0.12,-0.24,0.17,0.31
5.385,0.86,-0.34,0.42,1.02
5.395,0.39,0.16,-0.46,0.63
5.405,-0.37,-0.43,0.01,0.57
5.415,-0.19,-0.28,-0.05,0.35
5.426,0.51,0.41,0.34,0.74
5.436,0.99,0.45,0.19,1.11
5.446,0.77,0.75,-0.35,1.13
5.456,0.05,0.68,-0.09,0.69
5.466,-0.99,0.42,0.16,1.09
5.476,-2.08,0.34,-0.41,2.15
5.486,-1.36,-0.20,-0.67,1.53
5.496,0.07,0.04,-0.24,0.25
5.506,0.63,-0.74,0.42,1.06
5.516,0.70,-0.44,0.40,0.92
5.526,0.06,-0.34,-0.10,0.36
5.536,-0.48,-0.22,-0.46,0.70
5.547,-0.09,0.12,-0.03,0.15
5.556,0.44,0.25,0.40,0.65
5.567,1.27,1.03,0.46,1.70
5.577,0.86,0.85,-0.66,1.38
5.587,-0.49,0.42,-0.11,0.65
5.597,-1.79,0.36,0.23,1.84
5.607,-2.24,-0.54,-0.93,2.48
5.617,-0.64,0.52,-0.04,0.82
5.627,0.45,-0.30,0.30,0.62
5.637,1.06,-0.45,-0.32,1.20
5.647,0.60,-0.05,0.42,0.74
5.657,-0.48,-0.68,-0.17,0.84
5.668,-1.15,-0.61,-0.30,1.33
5.678,-0.54,-0.73,0.03,0.90
5.688,1.05,0.65,0.31,1.27
5.698,2.02,1.08,0.77,2.42
5.708,1.24,0.82,-0.71,1.65
5.718,-0.37,0.94,-0.33,1.06
5.728,-2.19,0.64,0.18,2.28
5.738,-2.57,0.12,-0.52,2.62
5.748,-1.04,-0.84,-0.81,1.56
5.758,0.51,-0.24,0.52,0.77
5.768,1.27,-0.22,0.27,1.32
5.779,0.67,-0.63,0.13,0.93
5.789,-0.18,-0.33,-0.25,0.44
5.799,-1.22,-0.63,-0.37,1.42
5.809,-2.90,0.97,0.56,3.11
5.819,-1.79,3.51,0.22,3.94
5.829,1.24,4.46,-0.68,4.68
5.839,2.46,2.87,-1.79,4.19
5.849,2.00,0.89,0.49,2.24
5.859,1.35,-1.21,2.17,2.83
5.869,0.79,-1.98,-0.41,2.17
5.879,-0.37,-1.86,0.40,1.93
5.889,-0.35,0.38,0.64,0.82
5.899,-1.04,1.01,-0.23,1.47
5.910,-1.35,0.31,-2.31,2.69
5.920,-1.07,-1.21,-2.01,2.58
5.930,0.25,-1.11,2.06,2.35
5.940,0.32,-1.14,1.25,1.72
5.950,0.80,-0.75,-0.01,1.10
5.960,0.43,0.12,-0.41,0.61
5.970,-0.33,-0.15,-0.99,1.05
5.980,-0.17,-0.10,-0.46,0.50
5.990,-0.68,-0.39,0.78,1.11
6.000,-0.54,-0.22,-0.07,0.59
6.011,-0.52,-0.68,-0.39,0.94
6.021,-0.67,-0.66,-0.20,0.96
6.031,-0.25,-0.26,-0.33,0.49
6.041,0.38,-0.22,0.17,0.47
6.051,0.55,-0.22,0.15,0.61
6.061,0.41,-0.25,0.16,0.51
6.071,0.20,-0.69,-0.74,1.03
6.081,-0.18,-0.74,0.13,0.78
6.091,-0.35,-0.68,-0.10,0.77
6.101,-1.24,-2.02,0.02,2.37
6.111,-0.14,-0.55,-0.52,0.77
6.121,0.33,-1.18,0.28,1.26
6.132,0.46,-0.70,-0.39,0.93
6.142,0.32,-0.97,0.07,1.02
6.152,-0.20,0.10,0.30,0.37
6.162,-6.07,3.57,1.65,7.23
6.172,-1.41,2.82,-2.66,4.12
6.182,3.57,4.38,-0.04,5.65
6.192,1.97,2.44,-2.83,4.23
6.202,3.71,0.86,2.53,4.57
6.212,1.65,1.35,2.39,3.20
6.222,-1.42,-2.68,-0.10,3.04
6.232,-3.07,-3.22,-1.66,4.75
6.242,-0.39,0.90,0.17,1.00
6.253,-2.03,-0.83,-0.75,2.31
6.263,-0.56,0.99,0.55,1.27
6.273,0.31,1.04,0.20,1.10
6.283,0.38,0.15,-0.97,1.05
6.293,1.11,1.07,0.22,1.56
6.303,-0.06,-0.82,-0.02,0.82
6.313,-0.88,-1.28,0.04,1.55
6.323,-0.69,-1.10,0.26,1.32
6.333,0.46,-0.29,-0.04,0.55
6.343,1.48,0.93,0.96,1.99
6.353,1.30,0.90,-0.87,1.81
6.363,0.23,0.80,-0.35,0.90
6.373,-0.75,1.26,0.33,1.50
6.384,-2.71,0.10,0.06,2.72
6.394,-1.70,-0.51,-1.27,2.18
6.404,0.22,0.23,0.08,0.33
6.414,0.39,-0.55,0.01,0.68
6.424,0.76,-0.88,0.36,1.22
6.434,0.44,-0.31,0.32,0.63
6.444,-0.78,-1.14,-0.49,1.47
6.454,-0.89,-0.39,-0.50,1.10
6.464,0.49,0.33,1.10,1.25
6.474,2.19,1.62,0.30,2.74
6.484,1.06,1.08,-0.76,1.69
6.495,0.30,1.25,-0.32,1.32
6.505,-1.16,1.28,0.54,1.81
6.515,-2.48,0.03,-0.24,2.50
6.525,-2.02,-1.15,-1.43,2.73
6.535,-0.43,-1.01,-0.10,1.11
6.545,1.04,-0.76,0.87,1.56
6.555,0.51,-0.47,0.53,0.88
6.565,0.53,-0.00,-0.28,0.60
6.575,0.44,-0.05,-0.64,0.78
6.585,-0.77,0.33,-0.06,0.84
6.595,0.15,0.85,0.99,1.32
6.605,1.56,1.27,-0.25,2.03
6.616,0.81,0.81,-0.66,1.32
6.626,0.36,0.47,0.14,0.61
6.636,-1.80,-0.60,0.19,1.91
6.646,-2.24,0.08,-0.33,2.26
6.656,-1.26,-1.05,-0.54,1.73
6.666,-0.24,0.03,-0.25,0.34
6.676,0.47,-0.01,0.45,0.65
6.686,1.31,-0.12,-0.20,1.33
6.696,0.19,0.33,0.43,0.58
6.706,-0.38,-0.54,-0.61,0.90
6.716,-0.33,-0.28,-0.06,0.44
6.726,0.45,0.43,0.89,1.09
6.737,1.19,0.23,0.25,1.24
6.747,0.72,0.85,1.87,2.18
6.757,-1.00,0.16,0.71,1.23
6.767,-1.83,0.40,-1.19,2.22
6.777,-1.30,1.57,0.55,2.11
6.787,-0.86,-0.71,-3.09,3.28
6.797,0.33,0.37,0.30,0.58
6.807,0.06,-1.34,0.78,1.55
6.817,0.01,1.90,0.45,1.95
6.827,-0.28,0.33,0.19,0.48
6.837,-0.21,0.46,-1.62,1.69
6.848,0.64,0.61,-0.14,0.89
6.857,1.04,0.46,1.29,1.72
6.868,0.37,-0.72,0.04,0.81
6.878,-0.24,-0.06,-0.91,0.94
6.888,-0.13,0.08,0.77,0.78
6.898,-1.03,0.04,-0.72,1.26
6.908,-0.95,0.26,-0.19,1.00
6.918,-0.42,-0.96,-0.62,1.21
6.928,-0.28,-1.12,0.30,1.19
6.938,-0.09,-1.33,-0.06,1.33
6.948,0.12,-0.35,-0.61,0.72
6.959,0.14,-0.18,-0.79,0.82
6.969,0.40,-1.27,-1.29,1.85
6.979,0.80,0.10,2.97,3.08
6.989,2.16,2.75,-1.43,3.78
6.999,0.28,3.60,-2.77,4.55
7.009,-0.16,3.95,-1.04,4.09
7.019,-1.32,4.90,-2.14,5.51
7.029,-0.94,3.85,-1.30,4.17
7.039,-0.67,3.81,-1.57,4.17
7.049,-0.19,-5.71,2.29,6.15
7.059,-2.67,-5.40,7.73,9.79
7.069,1.59,0.30,-10.31,10.43
7.079,0.66,-3.97,9.60,10.41
7.089,-1.44,-3.42,3.88,5.36
7.100,0.61,-0.30,-3.22,3.29
7.110,-0.51,-0.70,-1.16,1.44
7.120,0.66,-1.07,-3.87,4.07
7.130,0.74,-0.10,-1.31,1.51
7.140,1.57,0.67,2.72,3.21
7.150,1.02,0.08,1.13,1.52
7.160,-0.86,0.24,1.68,1.90
7.170,-2.63,0.67,-0.46,2.75
7.180,-2.28,-0.24,-2.94,3.73
7.190,0.30,1.18,-1.49,1.92
7.200,0.84,-0.84,0.40,1.26
7.210,1.10,-0.42,1.77,2.13
7.221,0.91,-0.35,0.71,1.21
7.231,-1.08,-1.02,0.42,1.54
7.241,-0.79,0.13,-1.14,1.39
7.251,0.99,0.43,0.14,1.09
7.261,1.82,1.88,-0.74,2.72
7.271,0.90,0.99,0.50,1.42
7.281,-0.55,-0.05,0.09,0.56
7.291,-2.32,0.02,0.16,2.32
7.301,-2.48,-0.48,-0.68,2.61
7.311,-0.91,-0.20,-0.82,1.24
7.321,0.32,0.20,0.34,0.51
7.332,1.64,0.04,0.16,1.65
7.342,0.84,0.04,0.29,0.89
7.352,-0.21,-0.59,0.03,0.62
7.362,-0.74,-0.69,-0.51,1.13
7.372,-0.38,-0.34,0.18,0.54
7.382,1.12,0.59,1.01,1.62
7.392,1.55,1.57,-0.77,2.33
7.402,0.61,0.84,0.18,1.06
7.412,-0.29,0.99,-0.72,1.26
7.422,-2.57,-0.57,0.48,2.68
7.432,-1.45,-0.01,-0.86,1.69
7.442,-0.29,-0.81,-0.37,0.94
7.453,-0.61,-0.49,0.64,1.01
7.463,0.83,-0.31,0.18,0.90
7.473,0.43,-0.04,-0.51,0.67
7.483,-0.21,0.22,0.42,0.51
7.493,0.05,-0.57,-0.65,0.87
7.503,0.16,0.03,0.37,0.40
7.513,1.10,0.51,0.52,1.32
7.523,0.65,0.16,-0.02,0.67
7.533,0.10,1.15,-0.32,1.20
7.543,-0.62,0.57,-0.01,0.84
7.553,-2.15,0.82,-0.41,2.33
7.564,-1.54,-0.19,-0.46,1.62
7.574,-0.25,-0.36,-0.47,0.65
7.584,0.66,-0.36,0.49,0.90
7.594,0.73,-0.64,0.34,1.03
7.604,-0.06,-0.42,0.11,0.44
7.614,-0.29,-0.45,-0.35,0.64
7.624,0.11,0.32,-0.43,0.55
7.634,0.09,-0.04,0.56,0.57
7.644,1.39,0.62,0.33,1.56
7.654,0.96,0.90,-0.21,1.33
7.664,-0.01,0.57,-0.28,0.64
7.674,-1.09,0.63,0.16,1.27
7.684,-2.64,0.18,-0.40,2.68
7.695,-1.27,0.21,-0.74,1.48
7.705,-0.19,-0.20,-0.06,0.28
7.715,0.82,-0.56,0.14,1.00
7.725,1.24,-0.50,0.40,1.40
7.735,-0.16,-0.68,0.24,0.74
7.745,-0.76,-0.49,-0.34,0.96
7.755,-0.53,-0.31,-0.12,0.63
7.765,0.49,0.73,-0.10,0.89
7.775,1.53,1.15,0.97,2.14
7.785,1.45,0.99,-0.74,1.90
7.795,0.08,0.41,-0.29,0.51
7.806,-1.35,0.62,0.19,1.50
7.816,-3.11,-0.35,-0.03,3.13
7.826,-1.54,-0.01,-1.00,1.84
7.836,0.58,0.38,0.34,0.77
7.846,0.99,-0.63,-0.44,1.25
7.856,0.92,-0.75,0.64,1.34
7.866,0.32,-0.22,0.10,0.41
7.876,-0.94,-1.19,-0.32,1.55
7.886,-0.91,-0.22,-0.02,0.94
7.896,0.15,0.02,0.23,0.28
7.906,1.67,1.32,0.44,2.17
7.916,1.59,1.51,-0.35,2.23
7.927,0.17,0.38,-0.68,0.80
7.937,-1.29,1.45,0.62,2.03
7.947,-2.68,0.54,-0.25,2.75
7.957,-1.67,-1.15,-1.43,2.48
7.967,-0.08,-0.45,0.47,0.66
7.977,0.83,-1.00,-0.18,1.31
7.987,0.86,-0.24,0.70,1.14
7.997,0.57,-0.22,0.44,0.75
8.007,-0.20,-0.90,-0.81,1.23
8.017,-0.74,-0.09,-0.20,0.77
8.027,-0.17,0.17,0.39,0.46
8.038,1.31,1.35,0.58,1.96
8.048,1.55,1.16,-0.44,1.98
8.058,0.36,0.98,-0.40,1.11
8.068,-1.46,1.34,0.44,2.03
8.078,-2.12,0.03,-0.80,2.27
8.088,-1.55,-0.85,-0.89,1.98
8.098,-0.34,-0.28,0.72,0.84
8.108,0.77,-1.48,-0.40,1.72
8.118,0.57,-0.29,0.71,0.95
8.128,0.64,-0.23,0.19,0.71
8.138,-0.17,-0.67,-0.66,0.96
8.148,-0.53,0.41,0.02,0.67
8.159,0.15,0.07,0.19,0.25
8.169,1.19,1.32,0.44,1.83
8.179,0.86,1.14,-0.11,1.43
8.189,-0.03,0.34,-0.90,0.96
8.199,-1.27,1.10,0.58,1.78
8.209,-2.26,-0.19,-0.53,2.33
8.219,-1.07,-0.65,-0.75,1.46
8.229,0.21,-0.25,0.49,0.58
8.239,0.77,-0.78,-0.24,1.12
8.249,0.53,-0.69,0.45,0.98
8.259,-0.43,-0.47,-0.07,0.64
8.269,-0.41,-0.48,-0.37,0.74
8.280,-0.01,0.28,0.16,0.32
8.290,0.83,0.87,0.59,1.34
8.300,1.68,1.33,-0.12,2.14
8.310,0.61,0.87,-0.65,1.24
8.320,-0.29,0.89,0.01,0.93
8.330,-1.96,-0.04,0.16,1.96
8.340,-2.38,-0.46,-0.61,2.50
8.350,-0.50,-0.17,-0.19,0.56
8.360,0.45,-0.63,-0.20,0.80
8.370,0.89,0.15,0.26,0.94
8.380,0.43,-0.30,0.38,0.65
8.391,-0.63,0.04,-0.16,0.65
8.400,-1.00,1.10,0.75,1.67
8.411,-0.92,4.36,0.76,4.52
8.421,1.27,5.50,-0.61,5.68
8.431,1.53,1.86,-2.52,3.49
8.441,0.38,-0.83,-1.79,2.01
8.451,-0.36,-2.54,2.57,3.63
8.461,-0.10,-1.74,1.45,2.27
8.471,-0.02,-1.21,1.05,1.60
8.481,-0.12,0.21,0.85,0.89
8.491,-0.59,1.27,-1.28,1.90
8.501,-1.16,-0.10,-3.58,3.77
8.512,-0.87,-1.06,-2.66,2.99
8.522,-0.05,-1.08,3.14,3.32
8.532,-0.16,-1.32,2.01,2.41
8.542,-0.02,-1.42,-0.94,1.70
8.552,0.02,-0.42,-0.07,0.43
8.562,0.42,1.35,0.19,1.43
8.572,0.63,-0.57,-1.71,1.91
8.582,1.00,0.35,0.43,1.14
8.592,-0.28,-0.01,0.80,0.85
8.602,-0.63,-0.74,-0.03,0.98
8.612,-1.12,-0.15,-0.10,1.13
8.622,-1.03,-0.32,-0.61,1.24
8.632,-0.96,-0.99,-0.56,1.49
8.643,0.21,0.08,-0.00,0.23
8.653,0.79,-0.90,0.08,1.20
8.663,0.61,-0.83,0.56,1.18
8.673,0.03,-0.56,-0.34,0.65
8.683,-0.37,-1.32,-0.43,1.44
8.693,-0.18,-0.70,-0.19,0.75
8.703,-0.29,-0.89,0.06,0.94
8.713,-0.50,-1.02,-0.18,1.15
8.723,0.00,-0.53,-0.04,0.53
8.733,0.20,-0.65,-0.26,0.73
8.743,0.14,-0.82,0.26,0.87
8.754,5.63,3.48,4.25,7.87
8.764,2.32,3.23,-3.28,5.15
8.774,-7.54,3.86,0.37,8.48
8.784,-0.75,3.80,-3.66,5.33
8.794,-2.56,-1.04,-0.84,2.89
8.804,0.60,0.09,2.84,2.90
8.814,2.90,-1.48,0.37,3.28
8.824,0.77,-1.25,1.31,1.97
8.834,0.38,0.73,0.07,0.83
8.844,-0.65,-1.05,-1.56,1.99
8.854,-2.14,0.32,-0.78,2.30
8.864,-1.72,0.00,-0.21,1.74
8.875,0.23,0.59,0.26,0.69
8.885,0.68,0.84,0.63,1.26
8.895,0.57,-0.30,-0.45,0.78
8.905,0.12,-0.19,-0.17,0.28
8.915,-0.27,-0.38,-0.20,0.51
8.925,-0.71,-0.91,-0.08,1.16
8.935,0.35,-0.31,0.85,0.96
8.945,1.66,0.40,0.42,1.75
8.955,1.00,0.74,-0.64,1.40
8.965,0.31,1.16,-0.27,1.23
8.975,-1.33,0.48,-0.21,1.43
8.986,-2.52,0.51,0.10,2.57
8.995,-1.49,-0.04,-0.61,1.61
9.006,-0.10,-0.66,-0.67,0.95
9.016,1.08,0.10,0.65,1.26
9.026,0.93,-1.12,-0.06,1.46
9.036,-0.14,-0.50,0.65,0.83
9.046,-0.59,0.08,-0.20,0.63
9.056,-0.42,-0.49,-0.65,0.92
9.066,0.51,0.97,0.67,1.28
9.076,1.69,0.84,-0.02,1.89
9.086,1.10,0.73,-0.63,1.46
9.096,0.27,1.03,0.66,1.25
9.106,-1.85,-0.15,-0.06,1.85
9.117,-2.84,-0.19,-0.74,2.94
9.127,-0.90,-0.07,-0.60,1.08
9.137,0.07,-0.86,-0.53,1.01
9.147,0.68,-0.43,0.88,1.19
9.157,1.22,-0.37,0.28,1.30
9.167,-0.06,-0.22,0.26,0.34
9.177,-0.95,0.24,-0.47,1.09
9.187,-0.18,0.38,-0.17,0.45
9.197,0.97,1.25,0.39,1.64
9.207,1.65,0.88,-0.26,1.89
9.217,0.62,0.30,-0.40,0.80
9.227,-0.27,0.05,0.45,0.53
9.238,-2.06,-1.12,-0.10,2.35
9.248,-2.47,-0.09,-0.30,2.49
9.258,-0.80,0.22,-0.42,0.93
9.268,0.75,0.96,-0.27,1.25
9.278,0.62,0.43,0.06,0.75
9.288,0.88,-0.35,0.07,0.95
9.298,-0.33,-0.29,-0.05,0.44
9.308,-1.07,-0.86,0.24,1.40
9.318,-0.65,0.48,1.06,1.33
9.328,1.18,0.02,1.86,2.21
9.338,1.42,-0.27,-0.34,1.48
9.348,0.39,1.49,-0.17,1.55
9.359,-0.30,1.08,-0.30,1.16
9.369,-1.46,0.42,-0.55,1.62
9.379,-1.50,0.27,-0.84,1.74
9.389,-0.71,-1.00,-1.61,2.03
9.399,-0.40,1.46,1.37,2.05
9.409,-0.04,-0.86,0.10,0.87
9.419,-0.00,0.78,-0.05,0.78
9.429,-0.00,0.30,0.13,0.32
9.439,0.03,0.18,-0.96,0.98
9.449,0.63,0.25,0.41,0.79
9.459,0.73,-0.05,0.83,1.11
9.469,0.10,-0.74,-0.51,0.91
9.480,-0.06,0.02,-0.43,0.44
9.490,-0.02,-0.30,0.75,0.81
9.500,-0.60,0.46,-0.38,0.84
9.510,-0.24,0.47,-0.68,0.86
9.520,0.00,-0.62,-1.30,1.44
9.530,0.09,-0.19,0.09,0.23
9.540,0.17,-0.58,-0.57,0.83
9.550,-0.18,-1.06,0.62,1.24
9.560,0.21,-0.15,0.64,0.69
9.570,0.39,1.03,-1.27,1.69
9.580,-0.98,1.76,-1.39,2.44
9.591,0.98,4.98,-2.80,5.80
9.601,-0.21,2.90,-1.94,3.49
9.611,0.96,5.27,-1.24,5.50
9.621,1.11,4.57,-0.24,4.71
9.631,0.63,-5.47,3.49,6.52
9.641,-5.52,-7.00,8.99,12.66
9.651,1.06,2.85,-11.73,12.12
9.661,-0.04,-2.35,7.76,8.11
9.671,-1.95,-4.31,5.17,7.00
9.681,1.11,-0.14,-5.55,5.66
9.691,-0.59,-1.36,-1.86,2.38
9.701,-0.31,-0.89,-3.15,3.28
9.712,0.62,-0.48,1.55,1.73
9.722,1.04,-1.07,3.66,3.95
9.732,2.01,0.35,0.33,2.06
9.742,1.54,0.30,0.12,1.57
9.752,0.34,1.04,-1.41,1.78
9.762,-2.55,0.25,-1.62,3.03
9.772,-2.79,1.05,0.09,2.98
9.782,-1.03,-0.02,-0.20,1.05
9.792,0.20,-0.65,1.14,1.32
9.803,1.73,0.05,-0.59,1.83
9.812,0.90,-1.09,0.44,1.49
9.822,0.01,0.38,-0.56,0.68
9.833,-1.09,-1.35,0.30,1.76
9.843,-0.52,0.23,-0.18,0.60
9.853,1.09,0.47,0.84,1.46
9.863,1.90,0.83,-0.36,2.10
9.873,0.71,0.71,-0.44,1.10
9.883,-0.73,0.64,0.14,0.98
9.893,-2.55,0.73,-0.21,2.67
9.903,-2.57,0.06,-0.32,2.59
9.913,-0.29,0.07,-0.93,0.98
9.923,0.84,0.13,0.60,1.04
9.933,1.28,-0.70,-0.18,1.47
9.943,0.46,-0.70,0.50,0.97
9.954,-0.41,-0.84,-0.19,0.95
9.964,-0.87,-1.06,0.12,1.38
9.974,-0.56,-0.27,-0.61,0.87
9.984,1.54,1.10,1.53,2.44
9.994,2.22,2.27,-0.54,3.22
10.004,0.54,0.88,-0.53,1.16
10.014,-0.77,1.56,-0.26,1.76
10.024,-2.94,0.23,0.16,2.95
10.034,-2.39,-1.16,-1.47,3.04
10.044,-0.24,-0.85,0.75,1.16
10.054,0.85,-0.94,-0.03,1.27
10.064,1.23,0.01,0.63,1.38
10.074,0.76,0.25,0.21,0.83
10.085,-0.15,-0.64,-0.91,1.12
10.095,-1.06,-0.34,-0.33,1.16
10.105,-0.76,-0.32,0.33,0.89
10.115,1.04,0.87,0.87,1.61
10.125,1.64,0.92,0.21,1.89
10.135,0.73,0.66,-1.22,1.56
10.145,-0.51,1.39,0.49,1.56
10.155,-2.93,0.25,-0.57,3.00
10.165,-1.88,-0.58,-0.97,2.20
10.175,-0.23,0.08,0.86,0.90
10.185,0.52,-0.91,-0.54,1.18
10.196,1.03,-0.64,0.43,1.29
10.206,0.58,-0.02,0.26,0.64
10.216,-0.38,-0.65,-0.42,0.87
10.226,-0.41,-0.27,-0.37,0.62
10.236,-0.16,-0.19,0.60,0.65
10.246,1.05,0.88,0.15,1.37
10.256,1.13,0.96,0.25,1.51
10.266,0.20,0.45,-1.26,1.35
10.276,-0.69,1.20,0.93,1.66
10.286,-2.15,0.88,-0.50,2.38
10.296,-1.62,-0.68,-0.77,1.92
10.307,0.19,0.23,0.11,0.31
10.317,0.64,-0.74,-0.11,0.98
10.327,0.68,-0.85,0.27,1.12
10.337,0.04,-0.49,0.57,0.75
10.347,-0.84,-0.80,-0.60,1.31
10.357,-0.47,-0.00,0.03,0.47
10.367,0.66,0.58,0.32,0.93
10.377,1.76,0.94,0.19,2.00
10.387,1.18,1.09,-0.61,1.71
10.397,0.10,0.49,0.16,0.53
10.407,-1.72,0.71,0.27,1.88
10.417,-2.44,0.41,-0.35,2.50
10.428,-1.02,-0.29,-1.07,1.50
10.438,-0.02,-0.21,-0.08,0.22
10.448,0.78,-0.47,0.03,0.91
10.458,0.60,-1.14,0.52,1.39
10.468,-0.06,-0.21,0.65,0.69
10.478,-0.44,-0.92,-0.69,1.23
10.488,-0.44,-0.01,-0.24,0.50
10.498,0.83,1.18,0.83,1.66
10.508,1.57,0.93,-0.27,1.84
10.518,0.71,0.95,-0.64,1.35
10.528,0.29,0.91,0.57,1.11
10.538,-1.88,-0.00,-0.29,1.90
10.549,-2.57,-0.01,-0.17,2.57
10.559,-1.06,-0.22,-0.92,1.42
10.569,0.11,-0.60,-0.19,0.63
10.579,1.23,-0.07,0.42,1.30
10.589,0.71,-0.91,0.42,1.22
10.599,-0.29,-0.39,0.06,0.49
10.609,-0.90,-0.60,-0.22,1.10
10.619,-0.72,-0.29,-0.57,0.97
10.629,1.82,1.30,1.30,2.59
10.639,2.19,1.72,-0.38,2.81
10.649,0.25,0.92,-0.50,1.08
10.660,-0.10,0.71,0.15,0.73
10.670,-2.29,0.18,-0.47,2.35
10.680,-2.87,-0.83,-0.10,2.99
10.690,-0.49,-0.29,-0.58,0.81
10.700,0.73,-0.50,0.18,0.90
10.710,1.07,-0.22,0.30,1.13
10.720,0.60,-0.08,0.24,0.65
10.730,-0.42,-0.25,-0.25,0.55
10.740,-0.65,-0.02,-0.45,0.79
10.750,-0.63,-0.37,-0.14,0.75
10.760,0.94,0.59,1.00,1.49
10.770,1.80,0.78,-0.13,1.97
10.780,0.66,0.53,-0.54,1.01
10.791,-0.01,1.05,0.36,1.11
10.801,-2.46,-0.08,-0.33,2.48
10.811,-2.43,0.20,-0.55,2.50
10.821,-0.61,-0.47,-0.53,0.93
10.831,0.49,-0.36,-0.02,0.61
10.841,1.08,-0.60,0.42,1.31
10.851,0.85,-0.46,0.35,1.02
10.861,-0.50,-0.21,0.07,0.54
10.871,-0.84,-0.34,-0.54,1.06
10.881,-0.05,0.19,-0.00,0.20
10.891,0.98,1.13,0.75,1.67
10.901,1.65,0.98,-0.56,2.00
10.912,0.70,0.39,-0.12,0.81
10.922,-0.45,0.86,0.17,0.99
10.932,-2.28,-0.76,-0.01,2.41
10.942,-2.36,-0.17,-0.74,2.48
10.952,-0.48,0.00,-0.33,0.58
10.962,0.74,-0.23,0.01,0.77
10.972,0.93,0.11,0.33,0.99
10.982,0.55,-0.04,0.36,0.66
10.992,-0.47,-0.28,-0.39,0.67
11.002,-1.11,-0.86,-0.39,1.46
11.012,0.07,-0.21,0.21,0.31
11.023,2.01,0.98,0.94,2.43
11.033,1.66,0.54,-0.51,1.81
11.043,0.12,0.86,-0.07,0.88
11.053,-1.17,0.89,-0.13,1.48
11.063,-2.34,0.21,-0.53,2.41
11.073,-2.24,-0.58,-0.29,2.33
11.083,0.12,-0.53,-0.69,0.88
11.093,1.22,-0.17,0.81,1.48
11.103,0.73,-0.27,0.11,0.79
11.113,-0.05,-0.50,0.21,0.55
11.123,-0.60,0.13,-0.37,0.72
11.133,-0.84,-0.10,-0.60,1.04
11.144,0.33,0.23,0.78,0.88
11.154,1.81,0.82,0.21,2.00
11.164,1.65,0.88,-0.37,1.91
11.174,0.02,0.34,0.10,0.35
11.184,-1.69,-0.11,-0.28,1.71
11.194,-2.58,0.18,0.08,2.59
11.204,-1.41,0.22,-0.91,1.69
11.214,0.16,-0.04,-0.21,0.27
11.224,0.72,-0.16,0.12,0.75
11.234,0.97,-0.43,0.17,1.08
11.244,-0.16,-0.38,0.32,0.52
11.254,-0.73,-1.09,-0.15,1.32
11.265,-0.28,0.20,-0.18,0.39
11.275,0.97,0.90,0.86,1.57
11.285,1.88,1.32,-0.49,2.35
11.295,0.64,0.63,-0.51,1.04
11.305,-0.18,0.60,0.14,0.64
11.315,-1.40,-0.19,0.05,1.41
11.325,-2.77,-0.76,0.01,2.87
11.335,-1.15,0.08,-0.73,1.36
11.345,0.63,0.07,-0.30,0.70
11.355,0.95,0.28,0.16,1.00
11.365,0.41,-0.33,0.24,0.58
11.375,-0.03,-0.14,0.07,0.16
11.386,-0.68,-0.13,-0.25,0.74
11.396,-0.80,-0.99,-0.34,1.32
11.406,0.30,0.29,0.69,0.81
11.416,2.14,1.17,0.42,2.48
11.426,1.17,0.95,-0.67,1.65
11.436,0.04,0.57,-0.02,0.57
11.446,-1.24,-0.01,-0.20,1.25
11.456,-2.65,-0.36,-0.02,2.68
11.466,-1.61,-0.19,-0.50,1.69
11.476,-0.05,-0.22,-0.14,0.27
11.486,0.85,0.04,0.09,0.86
11.496,1.30,0.51,0.06,1.40
11.507,-0.11,-0.56,0.04,0.57
11.517,-0.73,-0.61,-0.18,0.97
11.527,-0.36,-0.48,-0.10,0.61
11.537,0.23,-0.39,0.37,0.58
11.547,1.59,1.04,0.54,1.98
11.557,1.27,1.23,-0.42,1.82
11.567,0.04,1.29,-0.67,1.45
11.577,-1.02,0.12,0.18,1.04
11.587,-2.53,-0.54,-0.29,2.60
11.597,-1.34,-0.20,-0.37,1.41
11.607,-0.07,-0.84,-0.21,0.87
11.618,0.15,-0.26,0.38,0.49
11.628,0.99,0.21,0.34,1.07
11.638,0.33,0.10,-0.55,0.64
11.648,-0.58,-0.22,-0.23,0.66
11.658,-0.15,-0.31,0.22,0.41
11.668,0.83,0.35,0.20,0.92
11.678,1.35,0.45,0.51,1.51
11.688,0.37,0.29,-0.43,0.64
11.698,-0.25,0.87,-0.26,0.95
11.708,-1.10,1.13,0.27,1.60
11.718,-2.59,-0.50,-0.82,2.76
11.728,-1.01,0.06,-0.58,1.17
11.739,0.70,0.00,0.14,0.71
11.749,0.67,-1.04,0.05,1.24
11.759,0.34,-0.33,0.80,0.93
11.769,0.04,-0.08,-0.12,0.15
11.779,-0.51,-0.10,-0.56,0.77
11.789,-0.30,0.24,-0.12,0.40
11.799,1.09,0.18,0.58,1.25
11.809,1.56,1.03,-0.00,1.87
11.819,0.39,0.34,-0.18,0.55
11.829,-0.79,0.17,0.02,0.81
11.839,-2.16,0.38,-0.05,2.20
11.849,-2.11,0.32,-0.77,2.27
11.859,-0.24,0.43,-0.50,0.70
11.869,0.69,-0.13,0.26,0.75
11.880,0.95,-0.41,-0.06,1.03
11.890,0.24,-0.52,0.51,0.76
11.900,-0.53,-1.15,-0.25,1.29
11.910,-1.00,-0.89,-0.19,1.35
11.920,0.62,0.48,0.08,0.79
11.930,1.43,0.75,0.74,1.78
11.940,1.47,1.41,-0.02,2.04
11.950,0.34,1.06,-0.76,1.35
11.961,-0.86,0.78,-0.25,1.19
11.971,-2.49,-0.30,0.11,2.51
11.981,-1.83,-0.40,-0.34,1.90
11.991,-0.24,-0.27,-0.41,0.55
12.001,0.68,-0.03,0.41,0.80
12.011,1.05,-0.32,-0.17,1.11
12.021,0.33,-0.31,0.15,0.47
12.031,-0.53,-0.47,-0.25,0.75
12.041,-1.09,-1.13,-0.28,1.59
12.051,-0.50,0.37,0.25,0.67
12.061,0.82,0.00,0.50,0.96
12.071,1.97,1.34,-0.03,2.39
12.081,1.30,1.07,-0.36,1.72
12.092,-0.23,0.36,-0.35,0.55
12.102,-2.25,0.69,0.33,2.37
12.112,-2.95,-0.33,-0.64,3.04
12.122,-0.95,-0.18,-0.72,1.20
12.132,0.52,-0.31,0.35,0.70
12.142,1.52,-0.60,-0.18,1.64
12.152,0.85,0.19,0.86,1.23
12.162,0.06,-0.75,-0.22,0.78
12.172,-0.84,-0.92,-0.64,1.40
12.182,-0.97,-0.22,0.08,1.00
12.192,0.94,0.68,0.81,1.42
12.202,1.46,1.10,0.07,1.83
12.213,0.49,0.86,-1.17,1.53
12.223,0.54,0.91,0.33,1.10
12.233,-1.87,1.12,0.15,2.19
12.243,-2.58,-0.43,-0.69,2.71
12.253,-1.35,-0.77,-0.40,1.60
12.263,0.56,0.15,0.01,0.58
12.273,0.98,-1.11,0.04,1.48
12.283,0.73,-0.21,0.52,0.92
12.293,-0.01,-0.46,0.17,0.49
12.303,-0.49,-0.59,-0.69,1.03
12.313,-0.19,0.19,0.20,0.34
12.323,0.80,0.49,0.59,1.11
12.334,1.07,0.89,-0.20,1.41
12.344,0.35,0.40,-0.71,0.89
12.354,0.42,1.84,0.74,2.03
12.364,-2.76,0.26,-0.27,2.79
12.374,-1.64,0.06,-1.06,1.96
12.384,-0.22,0.18,-0.23,0.37
12.394,0.23,-1.00,-0.29,1.06
12.404,1.05,-0.62,0.98,1.56
12.414,0.26,-0.93,0.37,1.03
12.424,-0.69,-0.69,-0.54,1.12
12.434,-0.43,0.11,-0.15,0.47
12.445,-0.02,0.06,0.03,0.07
12.454,1.49,1.12,0.34,1.89
12.465,1.62,1.29,-0.13,2.08
12.475,0.12,0.73,-0.26,0.78
12.485,-0.96,0.69,0.30,1.22
12.495,-2.19,0.23,-0.47,2.26
12.505,-2.05,-0.27,-0.91,2.26
12.515,-0.24,-0.34,-0.15,0.44
12.525,0.80,-0.68,0.13,1.06
12.535,1.00,-0.67,0.59,1.34
12.545,-0.03,-0.21,-0.19,0.29
12.555,-1.18,-1.43,0.09,1.85
12.565,0.23,0.57,-0.52,0.80
12.576,0.96,0.28,0.91,1.36
12.586,1.56,1.27,0.22,2.02
12.596,1.04,1.09,-0.71,1.66
12.606,-0.01,0.92,-0.26,0.96
12.616,-1.44,0.52,0.13,1.54
12.626,-2.52,-0.76,-0.28,2.64
12.636,-1.47,-0.37,-0.53,1.61
12.646,0.38,-0.11,-0.14,0.42
12.656,0.93,-0.41,0.34,1.07
12.666,0.64,-0.08,-0.04,0.65
12.677,-0.01,-0.28,0.29,0.41
12.686,-0.71,-0.33,-0.64,1.00
12.697,-1.19,-0.55,-0.09,1.31
12.707,0.68,0.10,0.46,0.83
12.717,2.04,0.94,0.65,2.34
12.727,1.33,0.91,-0.51,1.69
12.737,0.14,0.52,-0.41,0.68
12.747,-1.39,0.87,0.30,1.67
12.757,-2.80,0.02,-0.56,2.85
12.767,-2.03,-0.55,-0.56,2.18
12.777,0.18,-0.14,-0.39,0.45
12.788,1.12,-0.66,0.33,1.34
12.797,0.74,-0.21,0.59,0.97
12.808,0.29,-0.35,-0.02,0.46
12.818,-0.02,-0.50,-0.46,0.67
12.828,-1.05,-0.26,-0.17,1.10
12.838,0.36,0.57,0.64,0.93
12.848,1.87,1.14,0.18,2.20
12.858,0.85,0.72,-0.80,1.37
12.868,0.29,0.68,0.34,0.81
12.878,-1.46,0.40,-0.03,1.51
12.888,-2.79,0.15,-0.20,2.80
12.898,-1.23,-0.29,-1.06,1.65
12.908,-0.08,-0.47,-0.10,0.48
12.918,1.17,0.22,0.36,1.24
12.929,0.94,-0.81,0.29,1.27
12.939,-0.20,-0.48,0.24,0.57
12.949,-0.55,-0.52,-0.39,0.85
12.959,-0.29,-0.25,-0.24,0.45
12.969,0.96,0.95,0.70,1.53
12.979,1.54,1.01,-0.05,1.84
12.989,0.48,1.03,-0.58,1.27
12.999,0.17,1.23,0.24,1.26
13.009,-2.05,-0.84,-0.42,2.25
13.019,-2.41,-0.47,-0.20,2.46
13.029,-0.66,-0.29,-0.45,0.85
13.040,0.09,-0.36,0.02,0.37
13.049,0.92,0.13,0.58,1.09
13.060,0.97,-0.12,-0.34,1.04
13.070,-0.39,0.25,-0.08,0.47
13.080,-0.92,-0.66,-0.26,1.17
13.090,-0.26,-0.52,-0.09,0.59
13.100,1.42,0.85,1.09,1.98
13.110,1.68,0.52,-0.20,1.77
13.120,0.39,0.66,-0.72,1.05
13.130,-0.38,1.06,0.45,1.21
13.140,-2.11,-0.07,-0.68,2.22
13.150,-2.42,-0.11,-0.11,2.43
13.160,-0.66,-0.09,-0.69,0.96
13.171,0.54,-0.70,0.17,0.90
13.181,1.03,0.16,0.29,1.08
13.191,0.52,-0.97,0.30,1.14
13.201,-0.32,0.00,-0.21,0.38
13.211,-0.39,-0.21,-0.21,0.49
13.221,-0.14,-0.00,-0.16,0.21
13.231,0.88,0.62,0.79,1.33
13.241,1.86,0.81,-0.40,2.07
13.251,0.65,1.20,-0.24,1.39
13.261,-1.26,-0.21,0.40,1.34
13.271,-1.75,0.11,-0.61,1.86
13.281,-2.24,0.02,-0.11,2.24
13.292,-0.32,-0.05,-0.78,0.84
13.302,0.60,-0.09,0.31,0.68
13.312,0.73,-0.35,0.10,0.82
13.322,0.66,-0.10,0.14,0.68
13.332,-0.66,-0.74,0.09,1.00
13.342,-1.10,-0.39,-0.45,1.26
13.352,0.23,0.07,0.20,0.31
13.362,1.57,1.01,0.84,2.05
13.372,1.51,1.13,-0.61,1.98
13.382,0.40,0.23,-0.41,0.62
13.392,-0.57,0.67,0.28,0.92
13.403,-2.52,-0.39,0.06,2.55
13.413,-2.42,-0.29,-0.70,2.53
13.423,-0.42,-0.03,-0.52,0.67
13.433,0.93,0.14,0.04,0.94
13.443,1.14,-0.24,0.29,1.20
13.453,0.63,-0.45,0.39,0.86
13.463,-0.43,-0.45,-0.33,0.70
13.473,-0.92,-0.68,-0.27,1.18
13.483,-0.40,-0.15,0.23,0.49
13.493,1.63,0.86,0.76,1.99
13.503,1.78,1.54,-0.53,2.41
13.514,0.13,0.64,-0.28,0.71
13.524,-0.90,0.56,-0.18,1.08
13.534,-2.40,-0.14,0.21,2.41
13.544,-2.21,-0.60,-0.73,2.40
13.554,-0.24,-0.36,-0.36,0.57
13.564,0.85,0.04,0.56,1.01
13.574,0.98,-0.33,-0.28,1.08
13.584,0.30,-0.19,0.38,0.52
13.594,-0.19,-0.06,-0.31,0.37
13.604,-0.61,-0.44,-0.26,0.80
13.614,0.28,0.15,0.37,0.49
13.624,1.28,0.43,0.72,1.53
13.634,0.97,1.27,-0.63,1.71
13.645,0.36,1.25,-0.13,1.30
13.655,-0.85,-0.25,-0.33,0.94
13.665,-2.03,-0.47,-0.10,2.09
13.675,-1.26,-0.04,0.03,1.27
13.685,-0.59,-0.67,-0.96,1.31
13.695,-0.16,-0.25,0.85,0.90
13.705,1.10,0.28,-0.06,1.14
13.715,0.37,0.05,-0.26,0.46
13.725,-0.51,-0.31,-0.16,0.62
13.736,-0.14,-0.62,-0.22,0.68
13.745,0.25,0.01,0.73,0.77
13.755,1.34,0.62,0.38,1.53
13.766,0.90,0.67,-0.48,1.22
13.776,0.14,1.05,-0.17,1.07
13.786,-1.30,0.38,-0.26,1.38
13.796,-2.36,0.22,-0.14,2.37
13.806,-1.30,-0.00,-0.48,1.39
13.816,-0.03,-0.37,-0.47,0.59
13.826,0.89,-0.31,0.53,1.08
13.836,0.71,-0.79,0.11,1.07
13.846,0.11,-0.07,0.16,0.21
13.856,-0.25,-0.25,-0.14,0.38
13.866,-0.37,-0.05,-0.41,0.56
13.877,0.44,0.61,0.49,0.89
13.886,1.53,0.98,0.24,1.83
13.897,0.55,0.73,-0.74,1.18
13.907,-0.21,0.24,0.39,0.50
13.917,-1.29,0.25,-0.10,1.31
13.927,-2.49,-0.01,-0.39,2.52
13.937,-0.86,0.26,-0.65,1.11
13.947,0.46,-0.06,0.04,0.46
13.957,0.63,-0.41,0.03,0.75
13.967,0.82,-0.11,0.35,0.90
13.977,-0.45,-1.01,-0.00,1.10
13.987,-1.03,-0.51,-0.24,1.17
13.997,-0.11,-0.56,-0.05,0.58
14.008,0.51,0.64,0.07,0.82
14.018,1.67,1.01,0.89,2.14
14.028,1.29,0.83,-0.71,1.69
14.038,-0.19,0.93,-0.37,1.02
14.048,-1.55,0.10,0.23,1.57
14.058,-2.66,0.15,-0.40,2.70
14.068,-1.42,-0.51,-0.64,1.64
14.078,0.40,-0.11,-0.01,0.42
14.088,1.27,0.02,0.35,1.31
14.098,0.78,-0.65,0.11,1.02
14.108,-0.06,-0.31,-0.10,0.33
14.118,-0.73,-0.88,-0.24,1.16
14.129,-0.90,-0.20,-0.18,0.94
14.139,0.08,-0.29,0.41,0.51
14.149,1.94,1.48,0.59,2.51
14.159,1.49,1.34,-0.47,2.05
14.169,0.06,0.12,-0.69,0.71
14.179,-1.29,1.42,0.58,2.00
14.189,-2.91,-0.29,-0.39,2.95
14.199,-1.58,-0.92,-1.26,2.22
14.209,0.26,0.25,0.95,1.02
14.222,0.98,-1.17,-0.53,1.61
14.229,1.16,-0.12,1.63,2.01
14.240,0.25,-0.43,0.12,0.51
14.250,-0.68,-0.69,-2.52,2.70
14.260,-0.70,0.43,-0.62,1.03
