time,ax,ay,az,atotal
0.000,1.59,0.85,1.30,2.22
0.010,1.31,-0.92,1.13,1.96
0.020,-0.29,-0.24,-0.72,0.82
0.030,-0.60,-0.92,-1.92,2.21
0.040,-0.21,-0.31,0.18,0.41
0.050,0.54,0.74,1.97,2.17
0.060,1.50,0.94,0.10,1.77
0.070,0.78,1.33,-0.95,1.81
0.080,-0.15,0.49,-0.72,0.88
0.091,-1.52,-0.95,-0.21,1.80
0.101,-2.34,-0.47,0.77,2.51
0.111,-0.53,-0.10,-0.45,0.70
0.121,-0.42,-1.08,-0.36,1.21
0.131,0.66,0.92,0.20,1.15
0.141,1.03,-0.22,-0.35,1.12
0.151,-0.09,0.10,-0.10,0.17
0.161,-0.31,-0.41,0.54,0.75
0.171,0.36,-0.43,0.14,0.58
0.181,1.44,0.80,0.13,1.66
0.191,0.83,0.16,-0.43,0.95
0.202,-0.04,0.49,-0.04,0.49
0.212,-0.46,0.93,0.37,1.10
0.222,-2.04,-0.18,-0.27,2.07
0.232,-1.76,0.03,-0.99,2.01
0.242,-0.26,0.09,-0.24,0.36
0.252,0.60,-0.48,0.08,0.77
0.262,0.78,-0.79,0.76,1.35
0.272,0.35,-0.27,0.13,0.46
0.282,-0.28,-0.42,-0.67,0.84
0.292,-0.36,0.38,-0.25,0.58
0.303,0.22,-0.03,0.81,0.84
0.312,1.71,1.01,0.05,1.99
0.323,1.11,0.74,-0.53,1.44
0.333,-0.07,0.23,0.00,0.24
0.343,-1.49,-0.10,0.22,1.51
0.353,-2.43,-0.16,-0.33,2.45
0.363,-1.04,0.79,-0.77,1.51
0.373,-0.02,-0.11,-0.10,0.15
0.383,0.80,-0.11,0.14,0.82
0.393,1.00,-0.41,0.34,1.13
0.403,-0.16,-1.02,-0.11,1.04
0.413,-1.04,-1.16,-0.21,1.57
0.423,-0.17,-0.42,-0.03,0.45
0.434,0.99,0.76,0.65,1.41
0.443,1.67,1.55,0.35,2.31
0.454,1.21,1.30,-1.19,2.14
0.464,0.15,0.65,-0.04,0.67
0.474,-1.57,0.13,0.53,1.66
0.484,-2.99,-1.08,-0.53,3.22
0.494,-1.13,-0.74,-0.22,1.37
0.504,0.30,0.23,-0.26,0.45
0.514,0.88,-0.27,0.11,0.93
0.524,1.22,0.23,0.02,1.24
0.534,0.07,-0.05,0.22,0.24
0.544,-1.00,-0.99,-0.59,1.53
0.555,-1.03,-0.59,0.03,1.19
0.565,0.19,0.03,0.49,0.53
0.575,1.31,0.50,0.35,1.45
0.585,2.11,1.51,-0.28,2.61
0.595,0.74,0.61,-0.46,1.06
0.605,-1.28,0.29,0.00,1.31
0.615,-2.85,0.06,0.06,2.85
0.625,-1.97,-0.52,-0.91,2.23
0.635,-0.21,-0.38,0.10,0.44
0.645,0.89,-0.57,0.11,1.06
0.655,1.60,0.08,0.18,1.61
0.666,0.31,-0.37,0.32,0.58
0.676,-0.21,-0.67,-0.75,1.03
0.686,-1.00,-0.96,-0.16,1.40
0.696,-0.35,0.13,0.78,0.87
0.706,1.45,1.12,0.79,1.99
0.716,1.35,0.83,-1.14,1.95
0.726,0.81,0.72,-0.54,1.21
0.736,-1.02,0.73,0.66,1.41
0.746,-2.64,0.52,-0.12,2.69
0.756,-1.69,-1.05,-0.96,2.21
0.766,-0.18,-0.11,0.11,0.24
0.776,0.54,-0.27,-0.10,0.61
0.787,1.00,-0.84,0.19,1.32
0.797,0.45,-0.02,0.51,0.68
0.807,-0.20,-0.75,-0.63,1.00
0.817,-0.45,-0.40,-0.29,0.67
0.827,0.51,0.66,0.83,1.18
0.837,1.13,0.59,0.26,1.30
0.847,0.60,0.55,-0.98,1.27
0.857,0.56,1.13,0.22,1.28
0.867,-1.29,0.69,0.29,1.49
0.877,-2.75,-0.19,-0.70,2.85
0.887,-0.69,0.26,-0.57,0.93
0.897,0.37,-0.64,-0.23,0.78
0.908,0.78,-0.61,0.61,1.16
0.918,0.50,-0.56,0.53,0.92
0.928,-0.20,-0.71,-0.43,0.86
0.938,-0.28,0.07,-0.52,0.59
0.948,-0.40,-0.49,0.26,0.68
0.958,1.25,0.88,0.69,1.68
0.968,1.59,1.11,0.05,1.94
0.978,0.46,0.46,-1.05,1.23
0.988,-0.62,0.35,0.48,0.86
0.998,-1.82,0.21,0.18,1.84
1.008,-2.14,-0.23,-0.70,2.26
1.018,-0.52,0.02,-0.58,0.78
1.029,0.37,-0.11,0.09,0.40
1.039,0.89,-0.26,0.26,0.97
1.049,0.49,-0.64,0.37,0.89
1.059,-0.58,-0.94,-0.39,1.17
1.069,-0.29,-0.49,-0.26,0.62
1.079,0.49,0.52,0.53,0.88
1.089,1.15,0.75,0.68,1.53
1.099,1.43,1.30,-0.75,2.07
1.109,0.58,0.89,-0.50,1.18
1.119,-0.64,0.20,0.32,0.75
1.129,-2.26,-0.82,0.11,2.41
1.139,-1.98,-0.47,-0.50,2.10
1.150,-0.50,-0.16,-0.42,0.67
1.159,0.63,0.05,0.09,0.64
1.170,0.90,-0.01,0.13,0.91
1.180,0.49,-0.18,0.14,0.54
1.190,-0.08,0.06,-0.12,0.16
1.200,-1.11,-0.93,-0.35,1.48
1.210,-0.51,-0.59,0.01,0.78
1.220,1.73,0.71,1.09,2.16
1.230,1.60,0.70,-0.28,1.77
1.240,0.72,0.63,-0.52,1.09
1.250,-0.49,0.67,0.00,0.83
1.260,-2.23,0.19,0.06,2.24
1.271,-2.26,-0.01,-0.53,2.32
1.281,-0.77,-0.22,-0.69,1.06
1.291,0.72,-0.26,0.22,0.80
1.301,0.98,-0.56,0.38,1.19
1.311,0.38,-0.46,0.27,0.66
1.321,0.18,-0.36,-0.28,0.49
1.331,-0.62,-0.77,-0.55,1.14
1.341,-0.35,0.23,0.70,0.81
1.351,1.42,1.06,0.71,1.91
1.361,1.34,0.72,-1.14,1.90
1.371,0.54,0.95,0.06,1.09
1.381,-0.62,0.17,0.37,0.74
1.392,-2.23,-0.08,-0.20,2.24
1.402,-1.96,0.18,-0.63,2.07
1.412,-0.79,-1.04,-0.75,1.51
1.422,0.61,0.32,0.38,0.79
1.432,1.04,-0.84,0.39,1.39
1.442,0.84,-0.23,0.15,0.89
1.452,-0.37,-0.26,-0.03,0.45
1.462,-0.61,-0.51,-0.75,1.09
1.472,0.47,0.44,0.84,1.06
1.482,1.43,1.10,0.40,1.85
1.492,0.56,-0.01,-0.80,0.97
1.503,0.56,1.37,0.03,1.48
1.512,-0.68,0.12,0.19,0.72
1.523,-2.45,-0.59,-0.31,2.54
1.533,-1.33,0.47,-0.47,1.49
1.543,-0.41,-1.03,-0.88,1.41
1.553,0.54,0.07,0.91,1.07
1.563,0.83,-0.25,0.23,0.89
1.573,0.48,-0.24,-0.16,0.56
1.583,-0.62,0.12,-0.28,0.69
1.593,-0.64,-1.00,-0.53,1.30
1.603,0.68,0.61,0.90,1.29
1.613,1.67,0.95,0.59,2.01
1.623,1.09,0.22,-1.09,1.56
1.634,0.11,1.04,0.31,1.09
1.644,-1.39,-0.01,-0.17,1.40
1.654,-2.47,-0.36,-0.20,2.50
1.664,-1.52,-0.01,-0.34,1.56
1.674,-0.00,-0.72,-0.65,0.96
1.684,0.92,-0.08,0.46,1.03
1.694,0.90,-0.39,0.32,1.03
1.704,-0.06,-0.52,-0.03,0.53
1.714,-0.60,-0.03,-0.30,0.67
1.724,0.09,-0.08,-0.33,0.35
1.735,0.58,0.28,0.86,1.08
1.744,1.59,0.92,0.18,1.84
1.755,1.17,1.02,-0.78,1.74
1.765,-0.26,0.47,0.32,0.63
1.775,-1.63,-0.14,-0.27,1.66
1.785,-2.29,-0.55,-0.05,2.35
1.795,-1.02,0.24,-0.73,1.28
1.805,0.44,-0.14,0.12,0.48
1.815,0.67,-0.32,0.03,0.74
1.825,0.62,-0.09,0.28,0.69
1.835,-0.02,-0.36,-0.18,0.40
1.845,-1.43,-1.01,-0.35,1.78
1.855,-0.35,-0.38,0.25,0.58
1.866,1.36,0.58,0.62,1.61
1.876,1.72,1.12,0.31,2.08
1.886,1.15,0.73,-1.06,1.73
1.896,-0.15,0.73,0.18,0.77
1.906,-1.72,-0.07,0.04,1.73
1.916,-2.71,-0.89,-0.09,2.85
1.926,-1.18,0.05,-0.68,1.36
1.936,0.59,0.00,-0.14,0.61
1.946,0.94,0.14,0.13,0.96
1.956,0.63,-0.58,0.27,0.90
1.967,0.10,-0.23,0.02,0.26
1.976,-0.72,-0.65,-0.45,1.06
1.987,-0.92,-0.79,0.25,1.24
1.997,1.18,0.77,0.87,1.66
2.007,2.01,1.49,-0.37,2.53
2.017,0.83,1.08,-0.63,1.50
2.027,-0.09,0.38,0.02,0.39
2.037,-1.74,-0.30,0.19,1.78
2.047,-2.25,-0.47,0.07,2.30
2.057,-1.30,-0.99,-1.02,1.93
2.067,0.03,0.44,0.13,0.46
2.077,0.75,-0.06,0.16,0.76
2.087,1.10,-0.04,-0.16,1.11
2.097,0.07,0.07,0.32,0.34
2.108,-0.40,-0.76,-0.47,0.98
2.118,0.11,-0.20,0.27,0.35
2.128,0.67,0.19,0.69,0.98
2.138,1.16,0.54,-0.24,1.31
2.148,0.59,1.55,-0.55,1.75
2.158,-0.28,0.25,0.16,0.41
2.168,-1.37,-0.62,-0.40,1.56
2.178,-1.73,-0.32,0.56,1.85
2.188,-0.90,-0.19,-1.23,1.53
2.198,-0.32,-0.96,0.22,1.04
2.208,0.52,0.79,0.41,1.03
2.219,0.84,-0.59,-0.46,1.13
2.229,-0.01,0.42,0.33,0.53
2.239,-0.23,-0.40,-0.47,0.66
2.249,0.08,-0.50,0.31,0.60
2.259,1.51,0.99,0.61,1.91
2.269,0.95,0.01,-0.55,1.10
2.279,0.06,0.89,-0.06,0.89
2.289,-0.50,0.51,0.21,0.75
2.299,-1.84,0.03,-0.45,1.89
2.309,-1.85,0.23,-0.15,1.87
2.319,-0.33,-0.27,-0.94,1.03
2.329,0.33,-0.21,0.45,0.60
2.340,0.74,-0.72,0.39,1.10
2.350,0.36,-0.64,0.01,0.74
2.360,-0.29,0.08,-0.06,0.31
2.370,-0.06,-0.41,-0.62,0.74
2.380,-0.06,0.18,0.31,0.37
2.390,1.23,0.68,1.01,1.73
2.400,1.45,0.92,-0.80,1.90
2.410,0.13,0.64,-0.19,0.68
2.420,-0.71,0.21,0.18,0.76
2.430,-2.17,-0.63,-0.33,2.29
2.440,-1.71,0.28,-0.38,1.78
2.450,-0.29,0.16,-0.07,0.33
2.460,0.50,-0.18,-0.12,0.54
2.471,1.27,0.24,0.19,1.30
2.481,0.31,-0.72,-0.13,0.80
2.491,-1.20,-0.96,-0.04,1.54
2.501,-0.65,-0.47,0.18,0.83
2.511,0.21,-0.49,-0.34,0.64
2.521,1.08,0.86,0.87,1.63
2.531,2.07,1.25,0.15,2.43
2.541,0.71,0.79,-1.20,1.60
2.551,-0.72,0.66,0.51,1.10
2.561,-2.55,-0.09,-0.19,2.56
2.572,-2.31,-0.50,-0.40,2.40
2.582,-0.41,-0.42,-0.51,0.78
2.592,1.02,0.00,0.24,1.04
2.602,1.21,-0.44,0.32,1.33
2.612,0.58,-0.20,0.09,0.62
2.622,-0.56,-0.64,-0.54,1.01
2.632,-1.18,-0.66,-0.05,1.35
2.642,-0.30,-0.27,0.24,0.47
2.652,0.92,0.10,0.67,1.14
2.662,2.27,1.62,0.20,2.80
2.672,0.80,0.64,-1.26,1.62
2.682,-0.16,0.75,0.28,0.82
2.692,-2.59,0.71,0.41,2.72
2.703,-2.68,-0.97,-1.20,3.09
2.713,-0.35,0.24,0.13,0.44
2.723,0.67,-0.54,0.04,0.86
2.733,1.26,-0.70,0.02,1.45
2.743,0.61,0.18,0.80,1.02
2.753,-0.27,-1.19,-0.85,1.48
2.763,-0.56,-0.42,-0.31,0.77
2.773,-0.35,-0.09,0.65,0.74
2.783,0.98,0.61,1.01,1.53
2.793,1.51,1.71,-1.05,2.51
2.803,0.77,0.41,-0.43,0.98
2.813,-0.69,0.74,0.08,1.02
2.824,-2.36,0.73,0.57,2.54
2.834,-1.60,-1.10,-1.35,2.37
2.844,-0.43,-0.41,0.00,0.60
2.854,0.48,0.03,0.31,0.57
2.864,0.69,-1.11,-0.17,1.32
2.874,0.63,0.22,0.62,0.91
2.884,-0.55,-0.94,-0.50,1.20
2.894,-0.24,-0.29,-0.31,0.48
2.904,0.46,0.51,0.61,0.92
2.914,1.08,0.27,0.57,1.25
2.924,1.09,1.03,-0.85,1.72
2.935,-0.06,0.44,-0.08,0.46
2.945,-0.84,1.21,0.24,1.49
2.955,-2.45,0.19,-0.11,2.46
2.965,-1.24,-0.34,-1.00,1.63
2.975,0.16,-0.06,-0.17,0.24
2.985,0.64,-1.00,0.44,1.27
2.995,0.74,-0.51,0.48,1.02
3.005,-0.01,-0.37,0.16,0.40
3.015,0.16,-0.33,-0.77,0.85
3.025,-0.49,0.08,-0.12,0.51
3.035,0.36,0.28,0.92,1.02
3.045,1.63,1.18,0.06,2.01
3.056,0.71,0.66,-0.69,1.19
3.066,-0.11,0.34,-0.02,0.36
3.076,-1.18,-0.14,0.07,1.19
3.086,-2.15,-0.07,-0.01,2.15
3.096,-1.02,-0.01,-0.54,1.15
3.106,-0.03,-0.28,-0.39,0.48
3.116,0.67,0.33,0.34,0.81
3.126,0.93,-0.60,0.01,1.11
3.136,-0.26,-0.68,0.13,0.74
3.146,-0.94,-0.69,-0.18,1.18
3.156,-0.04,-0.66,-0.42,0.78
3.166,0.71,0.66,0.90,1.33
3.177,1.78,1.00,0.42,2.08
3.187,1.10,0.70,-1.12,1.72
3.197,-0.01,0.98,0.17,0.99
3.207,-1.53,0.05,0.13,1.54
3.217,-2.74,-0.42,-0.35,2.79
3.227,-1.30,-0.44,-0.69,1.54
3.237,0.58,-0.08,0.08,0.59
3.247,0.95,-0.35,0.25,1.04
3.257,0.83,-0.36,0.36,0.97
3.267,-0.02,-0.24,-0.25,0.35
3.277,-0.96,-0.48,-0.26,1.11
3.288,-0.89,-0.42,-0.26,1.02
3.297,1.12,0.27,0.91,1.47
3.308,2.21,1.41,0.24,2.64
3.318,0.79,0.15,-0.94,1.24
3.328,0.06,0.85,0.16,0.87
3.338,-1.77,0.63,0.46,1.93
3.348,-2.99,-0.30,-0.81,3.11
3.358,-1.03,0.03,-0.74,1.26
3.368,0.44,-0.19,-0.04,0.48
3.378,0.96,-0.54,0.51,1.21
3.388,0.60,-0.58,0.57,1.01
3.398,0.11,-0.42,-0.41,0.60
3.408,-0.19,-0.67,-0.54,0.88
3.419,-0.09,-0.23,0.31,0.39
3.429,0.70,0.51,1.05,1.36
3.439,1.34,1.19,-0.51,1.87
3.449,0.75,1.07,-0.63,1.45
3.459,-0.51,0.63,0.10,0.82
3.469,-1.39,0.30,0.29,1.45
3.479,-2.13,-0.47,-0.57,2.26
3.489,-0.87,-0.29,-0.78,1.20
3.499,0.24,-0.35,0.40,0.58
3.509,0.64,-0.74,-0.00,0.98
3.520,0.84,-0.06,0.55,1.00
3.529,-0.27,-0.61,-0.37,0.76
3.540,-0.68,-0.36,-0.53,0.93
3.550,0.25,0.45,0.62,0.81
3.560,1.38,0.59,0.53,1.59
3.570,1.13,0.88,-0.63,1.57
3.580,0.54,0.99,0.10,1.13
3.590,-0.79,0.32,-0.13,0.86
3.600,-1.90,-0.51,-0.16,1.98
3.610,-1.76,0.01,-0.29,1.79
3.620,-0.56,-0.71,-0.78,1.19
3.630,0.38,-0.48,0.54,0.81
3.640,0.57,-0.24,0.25,0.66
3.651,0.46,-0.27,-0.05,0.53
3.660,0.20,0.50,-0.13,0.56
3.671,-0.66,-0.71,-0.49,1.09
3.681,0.25,0.09,0.51,0.58
3.691,1.63,1.02,0.76,2.07
3.701,0.84,0.45,-0.72,1.19
3.711,0.33,0.63,-0.04,0.71
3.721,-0.58,0.13,-0.06,0.60
3.731,-1.87,-0.18,-0.05,1.88
3.741,-1.56,0.31,0.08,1.59
3.751,-0.79,-0.63,-1.13,1.52
3.762,0.36,0.06,0.23,0.43
3.772,0.94,-0.11,0.29,0.99
3.782,-0.18,-1.15,0.16,1.17
3.792,-0.34,-0.06,0.14,0.37
3.802,-0.12,-0.89,-0.74,1.16
3.812,0.04,0.23,0.27,0.36
3.822,1.44,0.65,1.32,2.05
3.832,1.43,0.97,-1.04,2.01
3.842,0.23,1.00,-0.19,1.04
3.852,-0.82,0.35,0.10,0.90
3.862,-2.22,-0.41,-0.17,2.26
3.872,-1.94,-0.36,-0.24,1.99
3.883,0.20,0.12,-0.64,0.69
3.893,0.38,-0.62,0.26,0.77
3.903,0.77,-0.25,0.32,0.87
3.913,0.29,-0.49,0.00,0.57
3.923,-0.89,-0.46,-0.19,1.02
3.933,-0.54,-0.35,-0.12,0.65
3.943,0.77,0.47,0.39,0.98
3.953,1.73,1.31,0.65,2.27
3.963,1.16,0.45,-1.19,1.72
3.973,0.39,0.77,0.28,0.91
3.983,-0.95,0.48,0.52,1.19
3.993,-3.06,-1.11,-0.58,3.31
4.004,-1.61,0.38,-0.60,1.76
4.013,0.04,-0.27,-0.35,0.44
4.024,0.79,-0.25,0.23,0.86
4.034,1.06,-0.25,0.72,1.31
4.044,0.37,-0.42,-0.19,0.59
4.054,-0.36,-0.13,-0.52,0.64
4.064,-0.98,-0.96,-0.01,1.37
4.074,0.26,0.21,0.86,0.92
4.084,1.97,1.75,0.23,2.64
4.094,1.28,0.89,-0.89,1.80
4.104,-0.00,0.37,-0.26,0.45
4.114,-1.05,-0.13,0.36,1.12
4.125,-1.95,-0.71,0.08,2.07
4.135,-1.88,-0.48,-0.59,2.02
4.145,-0.52,-0.15,-0.37,0.66
4.155,0.73,0.42,0.03,0.84
4.165,1.10,0.11,0.26,1.14
4.175,0.30,-0.01,-0.23,0.37
4.185,-0.49,-0.93,0.62,1.22
4.195,-0.03,0.47,-0.96,1.07
4.205,0.38,-1.67,1.44,2.24
4.215,1.53,2.06,-0.20,2.57
4.225,0.64,0.38,-0.38,0.84
4.235,0.03,1.12,-0.54,1.24
4.246,-0.96,0.24,0.14,1.00
4.256,-2.11,-1.28,0.08,2.47
4.266,-0.97,0.27,-0.71,1.23
4.276,-0.46,-0.97,0.08,1.08
4.286,0.14,-0.17,-0.02,0.22
4.296,0.89,0.22,0.41,1.00
4.306,0.74,0.46,-0.32,0.93
4.316,-0.39,-0.38,-0.22,0.58
4.326,-0.43,-0.29,0.05,0.52
4.336,1.08,0.13,0.77,1.33
4.346,1.05,0.23,-0.17,1.09
4.357,0.55,0.50,-0.18,0.76
4.367,0.19,0.91,-0.03,0.93
4.377,-1.49,0.08,-0.34,1.53
4.387,-2.01,0.46,0.30,2.09
4.397,-0.99,-0.32,-1.35,1.70
4.407,0.18,0.05,0.33,0.38
4.417,0.71,-0.51,0.16,0.89
4.427,0.22,-1.15,0.43,1.24
4.437,-0.09,0.19,-0.04,0.22
4.447,-0.38,-0.76,-0.61,1.05
4.457,-0.49,0.10,-0.21,0.55
4.467,1.14,0.29,1.30,1.75
4.477,1.64,0.90,-0.30,1.89
4.488,0.72,0.81,-0.52,1.21
4.498,-0.34,0.60,0.08,0.69
4.508,-1.86,0.01,-0.00,1.86
4.518,-2.21,-0.31,-0.43,2.27
4.528,-0.38,0.39,-0.45,0.70
4.538,0.24,-0.41,0.16,0.50
4.548,1.01,-0.19,0.02,1.03
4.558,0.65,-0.49,0.21,0.84
4.568,-0.84,-0.76,-0.13,1.14
4.578,-0.82,-0.58,-0.14,1.02
4.588,-0.04,-0.48,-0.33,0.59
4.598,0.96,0.92,1.03,1.68
4.608,1.99,0.99,0.11,2.22
4.619,0.99,0.74,-1.13,1.67
4.629,-0.22,0.90,0.33,0.98
4.639,-2.32,-0.07,-0.01,2.32
4.649,-2.63,-0.06,-0.18,2.64
4.659,-0.65,-0.21,-0.72,0.99
4.669,0.76,-0.29,-0.12,0.82
4.679,1.12,-0.11,0.65,1.30
4.689,0.51,-0.82,0.06,0.97
4.699,-0.08,-0.39,-0.20,0.44
4.709,-0.83,-0.67,-0.27,1.10
4.719,-1.01,-0.66,0.00,1.20
4.730,0.78,0.70,0.73,1.27
4.740,2.53,1.97,0.40,3.23
4.750,0.65,0.36,-1.42,1.61
4.760,0.02,0.48,0.32,0.58
4.770,-1.77,0.91,0.54,2.06
4.780,-3.06,-1.21,-0.95,3.42
4.790,-0.57,0.02,-0.19,0.60
4.800,0.36,-0.23,-0.04,0.42
4.810,1.25,-0.44,0.09,1.33
4.820,0.82,-0.05,0.56,1.00
4.830,-0.40,-1.01,-0.42,1.16
4.841,-0.58,-0.57,-0.39,0.91
4.851,-0.49,-0.45,0.37,0.76
4.861,0.78,0.60,0.92,1.35
4.871,1.59,1.51,-0.36,2.23
4.881,0.90,0.61,-1.04,1.50
4.891,0.06,1.13,0.41,1.20
4.901,-2.24,0.55,0.48,2.36
4.911,-2.45,-0.36,-0.95,2.65
4.921,-0.48,-0.56,-0.54,0.91
4.931,0.47,-0.58,0.01,0.75
4.941,0.71,-0.87,0.58,1.26
4.951,0.73,-0.24,0.55,0.94
4.962,-0.25,-0.49,-0.59,0.81
4.972,-0.49,-0.09,-0.47,0.69
4.982,0.24,0.13,0.22,0.35
4.992,0.87,0.55,0.78,1.29
5.002,1.34,1.22,0.14,1.82
5.012,0.57,0.48,-0.97,1.22
5.022,-0.41,0.67,0.14,0.80
5.032,-2.14,0.27,0.35,2.18
5.042,-2.19,-0.57,-0.98,2.47
5.052,-0.01,0.04,-0.12,0.13
5.062,0.67,-0.59,0.02,0.89
5.073,0.41,-0.76,0.39,0.94
5.083,0.39,0.03,0.46,0.60
5.093,-0.36,-0.68,-0.69,1.03
5.103,-0.88,-0.19,-0.41,0.99
5.113,0.28,-0.16,0.59,0.67
5.123,1.38,0.53,0.60,1.59
5.133,1.51,1.08,-0.22,1.87
5.143,0.47,0.51,-0.52,0.87
5.153,-0.66,0.67,0.06,0.94
5.163,-2.41,-0.11,0.09,2.42
5.173,-1.66,0.15,-0.63,1.78
5.183,-0.17,-0.36,-0.32,0.51
5.193,0.46,-0.23,0.05,0.52
5.204,1.00,-0.43,0.26,1.12
5.214,0.25,-0.67,0.32,0.78
5.224,-0.96,-0.55,-0.39,1.17
5.234,-0.54,-0.98,-0.43,1.20
5.244,0.68,0.78,0.58,1.18
5.254,1.71,0.87,0.97,2.16
5.264,1.46,0.78,-1.17,2.03
5.274,0.24,0.75,-0.10,0.79
5.284,-1.21,0.38,0.39,1.32
5.294,-2.60,-0.04,0.03,2.60
5.304,-1.90,-0.22,-0.90,2.12
5.314,0.31,0.09,-0.65,0.73
5.325,1.00,-0.35,0.51,1.18
5.335,0.59,-0.76,0.37,1.03
5.345,0.34,-0.46,0.12,0.58
5.355,-0.44,-0.75,-0.24,0.90
5.365,-1.19,-1.04,-0.62,1.69
5.375,0.73,0.79,1.16,1.59
5.385,2.27,1.60,0.42,2.81
5.395,0.68,0.54,-1.60,1.82
5.405,0.38,1.17,0.52,1.33
5.415,-0.80,0.79,0.50,1.23
5.425,-2.89,-0.51,-0.49,2.97
5.436,-1.49,0.17,-0.93,1.76
5.446,-0.14,-0.86,-0.52,1.01
5.456,0.72,-0.35,0.73,1.08
5.466,0.63,-0.60,0.70,1.12
5.476,0.12,-0.65,-0.44,0.79
5.486,-0.15,-0.08,-0.43,0.46
5.496,-0.38,-0.41,-0.07,0.56
5.506,0.71,0.65,0.94,1.34
5.516,1.69,1.44,0.08,2.22
5.526,0.68,0.76,-0.92,1.37
5.536,0.02,0.83,0.23,0.86
5.546,-1.33,-0.08,0.17,1.35
5.557,-2.28,-0.51,-0.53,2.39
5.567,-1.30,-0.47,-0.41,1.45
5.577,-0.10,-0.74,-0.21,0.78
5.587,0.63,-0.34,0.36,0.80
5.597,2.25,0.67,1.10,2.59
5.607,2.58,2.34,0.18,3.49
5.617,0.73,2.19,-0.03,2.31
5.627,1.04,1.66,-0.29,1.99
5.637,0.39,0.46,-1.00,1.16
5.647,-0.98,-0.94,0.29,1.39
5.658,-0.73,-1.50,0.28,1.69
5.667,-1.06,-1.69,0.23,2.01
5.677,-0.95,-0.82,0.58,1.39
5.688,-1.24,-0.28,-0.35,1.32
5.698,-0.30,0.58,-1.76,1.88
5.708,0.10,1.14,-0.79,1.39
5.718,-0.39,0.36,1.26,1.37
5.728,0.25,0.22,1.15,1.20
5.738,0.12,-0.79,-0.61,1.00
5.748,0.11,-0.77,-1.19,1.42
5.758,-1.00,-0.15,0.12,1.01
5.768,-4.83,0.80,0.51,4.92
5.778,-1.88,1.91,-1.16,2.92
5.789,0.32,0.27,-1.26,1.33
5.799,0.72,0.00,0.73,1.02
5.809,0.91,-1.57,0.89,2.02
5.819,1.52,-1.10,-0.09,1.87
5.829,0.32,0.06,0.79,0.86
5.839,-0.73,0.37,-0.20,0.84
5.849,-0.96,-0.16,-2.34,2.53
5.859,-1.16,-0.77,-0.12,1.40
5.869,-1.07,-1.08,0.92,1.77
5.879,-0.36,-1.80,-0.04,1.84
5.889,0.72,-1.13,-0.25,1.37
5.900,0.61,-0.52,0.10,0.81
5.909,-0.09,-0.48,-0.54,0.72
5.920,-0.45,-0.46,-0.26,0.69
5.930,-0.41,-0.16,0.49,0.66
5.940,-0.26,0.17,0.08,0.32
5.950,3.42,2.87,3.30,5.55
5.960,3.23,3.21,-2.90,5.39
5.970,-0.07,-0.47,-2.50,2.54
5.980,1.32,1.80,3.05,3.78
5.990,-1.55,-0.93,0.33,1.84
6.000,-2.50,-3.60,-0.81,4.46
6.010,0.29,-0.81,0.14,0.87
6.020,1.09,-0.95,0.24,1.46
6.030,2.18,0.29,0.27,2.21
6.041,2.10,0.81,0.79,2.39
6.051,1.00,0.57,-1.08,1.58
6.061,0.04,0.04,0.05,0.08
6.071,-1.03,-0.69,0.10,1.24
6.081,-2.31,-1.95,-0.29,3.04
6.091,0.33,0.21,0.38,0.54
6.101,-2.47,1.94,0.58,3.19
6.111,-3.56,2.25,-2.26,4.78
6.121,-0.65,1.70,-1.58,2.41
6.131,-0.15,1.00,1.02,1.44
6.141,1.76,-0.46,0.81,1.99
6.151,2.48,0.00,1.51,2.91
6.162,0.44,-0.55,-0.80,1.07
6.172,0.24,-0.85,-1.18,1.47
6.182,-0.06,-0.00,0.63,0.63
6.192,-1.14,-0.27,0.46,1.26
6.202,-1.50,0.25,-0.24,1.54
6.212,-1.36,1.05,-0.55,1.81
6.222,-0.56,0.10,-1.58,1.68
6.232,0.76,0.23,0.81,1.14
6.242,1.23,-0.36,0.76,1.49
6.252,0.22,-0.88,-0.02,0.90
6.262,-0.53,-0.43,0.02,0.68
6.273,-0.27,-0.23,-0.81,0.89
6.283,-0.30,-0.25,0.57,0.69
6.293,1.18,0.95,0.72,1.68
6.303,1.45,1.05,-0.58,1.89
6.313,0.51,0.66,-0.39,0.92
6.323,-0.17,0.32,0.15,0.39
6.333,-2.03,-1.54,-0.05,2.55
6.343,-1.71,0.26,-0.17,1.74
6.353,-0.72,0.01,-0.48,0.86
6.363,-0.59,-0.50,0.06,0.78
6.373,0.70,0.60,0.11,0.93
6.383,1.21,-0.13,-0.41,1.29
6.394,-0.36,-0.51,0.19,0.65
6.404,-0.15,-1.16,0.20,1.19
6.414,0.35,-0.38,0.14,0.54
6.424,0.94,0.91,0.76,1.52
6.434,0.93,0.89,-0.62,1.42
6.444,0.18,1.29,-0.56,1.42
6.454,-0.59,0.60,0.03,0.85
6.464,-1.69,0.20,0.21,1.72
6.474,-1.75,-0.84,-0.47,2.00
6.484,-0.02,-0.68,-0.58,0.90
6.494,0.64,-0.35,0.37,0.82
6.505,0.16,-0.89,0.44,1.01
6.515,0.32,0.52,0.14,0.62
6.525,-0.48,-0.08,-0.66,0.82
6.535,-0.47,0.21,-0.34,0.62
6.545,0.62,-0.05,0.71,0.95
6.555,1.84,0.51,0.52,1.98
6.565,1.39,0.46,-0.50,1.55
6.575,-0.26,-0.03,-0.26,0.37
6.585,-1.62,0.40,0.36,1.71
6.595,-2.38,0.02,-0.29,2.40
6.605,-1.01,0.80,1.16,1.73
6.615,-0.42,-0.35,1.69,1.78
6.625,0.36,-0.11,-1.38,1.43
6.636,1.06,0.66,1.22,1.75
6.646,0.06,0.22,-2.78,2.79
6.656,-0.04,0.78,-0.10,0.79
6.666,-0.46,-0.98,0.54,1.21
6.676,0.80,1.38,1.34,2.08
6.686,0.69,0.69,0.68,1.19
6.696,0.05,0.34,-2.35,2.38
6.706,0.16,1.25,-0.53,1.36
6.716,-1.07,0.69,1.53,1.99
6.726,-1.22,0.52,-0.82,1.55
6.736,-0.74,-0.10,-1.01,1.26
6.746,-0.11,-0.63,0.32,0.72
6.757,0.43,-0.09,-0.54,0.70
6.767,0.15,-0.26,1.07,1.11
6.777,-0.03,-0.38,-0.75,0.84
6.787,-0.20,-0.39,0.02,0.44
6.797,-0.01,-0.47,-0.12,0.49
6.807,0.49,-0.19,0.59,0.79
6.817,0.63,-0.59,1.05,1.36
6.827,-0.18,-0.89,-1.47,1.73
6.837,-0.28,0.31,0.04,0.42
6.847,-1.12,0.77,1.07,1.73
6.857,-0.97,-0.68,-2.95,3.18
6.868,0.09,-0.34,0.22,0.42
6.878,-0.07,-0.74,-0.39,0.84
6.888,0.14,-1.84,1.53,2.40
6.898,0.25,0.81,0.27,0.89
6.908,0.55,-0.06,-1.89,1.97
6.918,0.09,3.69,-3.67,5.21
6.928,0.98,4.09,-1.94,4.63
6.938,1.20,3.84,1.54,4.31
6.948,-0.03,3.89,-0.05,3.89
6.958,0.95,4.44,-3.64,5.82
6.968,-0.55,-9.75,8.37,12.86
6.978,-4.39,-3.50,2.75,6.25
6.989,1.85,3.10,-10.63,11.23
6.999,-2.33,-5.32,9.60,11.22
7.009,-0.39,-2.29,5.35,5.83
7.019,-0.53,-0.38,-7.07,7.10
7.029,-0.02,-0.72,-2.70,2.79
7.039,0.53,0.11,-1.28,1.39
7.049,0.19,-1.58,2.29,2.79
7.059,0.86,-0.87,1.76,2.14
7.069,1.53,0.16,1.95,2.48
7.079,1.56,0.45,-0.80,1.81
7.090,1.03,1.16,-2.92,3.30
7.100,-0.12,-0.08,-0.82,0.83
7.110,-0.80,0.61,1.83,2.09
7.120,-2.40,0.31,0.75,2.54
7.130,-1.25,-0.14,-0.34,1.30
7.140,0.26,0.11,-1.69,1.71
7.150,0.37,-0.40,0.08,0.55
7.160,1.05,-0.18,-0.11,1.07
7.170,-0.43,-0.98,1.74,2.04
7.180,-0.10,-0.17,-0.90,0.92
7.190,-0.26,-0.93,-0.02,0.96
7.200,0.81,0.42,-0.19,0.93
7.210,1.60,0.80,0.77,1.95
7.221,0.57,0.46,-1.11,1.33
7.231,-0.24,1.08,1.08,1.54
7.241,-1.44,1.34,-0.23,1.98
7.251,-2.10,0.21,-0.86,2.28
7.261,-0.79,0.37,-0.84,1.21
7.271,-0.20,-0.99,-0.02,1.01
7.281,0.89,-0.89,0.56,1.38
7.291,0.54,-0.95,1.01,1.49
7.301,-0.24,-0.98,-0.50,1.12
7.311,-0.59,-0.93,-1.11,1.56
7.321,0.67,0.76,1.18,1.55
7.331,1.08,0.92,0.13,1.43
7.342,1.18,1.16,0.03,1.66
7.352,0.84,1.47,-0.86,1.90
7.362,-0.26,0.39,0.23,0.52
7.372,-1.66,0.36,0.40,1.75
7.382,-2.56,-0.88,-0.76,2.81
7.392,-0.76,-0.60,-1.07,1.44
7.402,0.12,0.02,0.91,0.92
7.412,0.41,-1.19,-0.28,1.29
7.422,1.20,0.05,0.71,1.39
7.432,0.34,-0.48,-0.26,0.64
7.442,-1.09,-0.71,-0.72,1.49
7.452,0.01,0.61,0.59,0.84
7.463,1.56,1.06,0.97,2.12
7.473,1.19,0.99,-1.27,2.00
7.483,0.69,0.91,0.24,1.17
7.493,-0.61,0.34,-0.08,0.71
7.503,-2.55,-0.49,0.12,2.60
7.513,-2.33,-0.19,-0.72,2.45
7.523,-0.79,-0.81,-0.88,1.43
7.533,1.45,0.02,0.73,1.62
7.543,1.33,-0.14,0.33,1.38
7.553,0.22,-0.36,0.14,0.45
7.564,-0.02,0.08,-0.56,0.56
7.573,-1.03,-0.47,-0.31,1.17
7.583,-0.31,0.16,0.59,0.68
7.594,1.73,0.93,0.67,2.08
7.604,1.96,1.14,-0.79,2.40
7.614,0.62,0.76,0.14,0.99
7.624,-1.18,0.06,-0.04,1.18
7.634,-2.83,-0.52,-0.27,2.89
7.644,-1.89,-0.20,-0.61,1.99
7.654,-0.61,-0.83,-0.22,1.06
7.664,0.52,-0.04,0.38,0.64
7.674,1.54,-0.38,-0.13,1.59
7.684,0.88,0.08,0.25,0.92
7.694,-0.59,-0.04,0.08,0.59
7.705,-0.99,-0.63,-0.79,1.41
7.715,-0.15,0.43,0.77,0.90
7.725,1.27,0.65,0.26,1.45
7.735,1.41,0.48,-0.65,1.62
7.745,0.92,0.61,0.05,1.10
7.755,-0.37,0.43,0.48,0.74
7.765,-2.65,-0.26,-0.25,2.67
7.775,-2.18,-0.17,-0.92,2.37
7.785,-0.45,-0.45,-0.72,0.96
7.795,0.33,-0.36,0.63,0.79
7.805,1.22,-0.17,0.53,1.34
7.815,0.68,-0.54,-0.07,0.87
7.826,-0.32,0.10,-0.27,0.43
7.836,-0.50,-0.41,-0.49,0.81
7.846,0.26,0.13,0.82,0.87
7.856,1.66,1.51,0.44,2.29
7.866,0.98,0.61,-0.90,1.47
7.876,0.35,1.02,0.13,1.09
7.886,-1.39,-0.06,0.11,1.40
7.896,-2.34,-0.61,-0.47,2.47
7.906,-1.41,0.01,-0.11,1.42
7.916,-0.34,-1.14,-0.80,1.43
7.926,0.80,-0.26,0.51,0.98
7.936,1.20,-0.29,0.25,1.26
7.947,-0.18,-0.68,0.26,0.75
7.957,-0.34,0.76,-0.46,0.95
7.967,-0.23,0.01,-0.14,0.28
7.977,0.43,0.55,0.20,0.73
7.987,1.77,0.80,0.35,1.98
7.997,1.34,0.54,-0.57,1.55
8.007,-0.22,0.09,0.54,0.59
8.017,-2.03,-0.49,-0.16,2.10
8.027,-2.77,-0.21,-0.71,2.87
8.037,-0.94,0.41,-0.41,1.10
8.047,0.22,-0.18,-0.05,0.29
8.058,1.14,0.05,0.21,1.16
8.068,1.37,0.04,0.43,1.43
8.078,-0.35,-0.85,-0.35,0.99
8.088,-1.12,-0.56,-0.24,1.27
8.098,-0.21,-0.15,0.35,0.43
8.108,1.08,0.91,0.57,1.52
8.118,1.64,1.13,-0.27,2.01
8.128,0.92,0.76,-0.71,1.39
8.138,-0.39,0.46,0.26,0.65
8.148,-2.00,-0.76,0.17,2.14
8.158,-2.67,-0.74,-0.33,2.78
8.168,-0.52,0.10,-0.71,0.89
8.179,0.94,0.41,0.27,1.06
8.189,0.78,-0.03,-0.13,0.79
8.199,0.71,-0.05,0.47,0.86
8.209,0.08,0.11,-0.39,0.42
8.219,-1.34,-1.11,-0.37,1.78
8.229,-0.67,-0.70,0.42,1.06
8.239,1.45,0.92,0.94,1.96
8.249,1.94,1.02,-0.63,2.28
8.259,1.12,1.09,-0.27,1.59
8.269,-0.33,0.53,-0.20,0.65
8.279,-2.11,-0.68,0.09,2.22
8.289,-2.29,-0.31,-0.09,2.31
8.300,-1.41,-0.78,-0.69,1.75
8.310,0.16,0.29,0.33,0.46
8.320,1.42,0.09,-0.30,1.45
8.330,0.87,0.10,0.27,0.92
8.340,-0.17,-0.19,0.10,0.28
8.350,-0.75,-1.08,-0.65,1.46
8.360,-0.43,-0.30,0.43,0.68
8.370,0.73,0.06,0.89,1.15
8.380,1.68,1.10,-0.35,2.04
8.390,0.96,1.25,-0.68,1.72
8.400,0.34,0.96,0.01,1.01
8.410,-1.54,-0.37,0.15,1.59
8.420,-2.56,-0.92,-0.08,2.72
8.431,-0.69,-0.11,-0.93,1.16
8.441,-0.52,-1.09,-0.04,1.21
8.451,0.20,-0.07,0.74,0.77
8.461,1.28,0.13,-0.31,1.32
8.471,0.08,0.19,-0.07,0.22
8.481,-0.24,-0.25,-0.17,0.39
8.491,0.22,-0.31,0.03,0.39
8.501,1.40,0.85,1.07,1.95
8.511,0.73,0.09,-0.73,1.04
8.521,0.25,0.99,-0.15,1.03
8.532,-0.51,0.65,0.33,0.89
8.542,-1.86,-0.06,-0.63,1.97
8.551,-1.81,0.17,-0.08,1.82
8.562,-0.44,-0.27,-0.80,0.95
8.572,0.57,-0.33,0.32,0.73
8.582,0.90,-0.57,0.49,1.17
8.592,-0.10,-0.92,-0.02,0.92
8.602,-0.08,0.45,-0.10,0.47
8.612,-0.41,-0.13,-0.63,0.76
8.622,-0.28,-0.26,0.32,0.50
8.632,1.82,1.06,1.01,2.34
8.642,1.63,0.58,-0.95,1.97
8.652,0.33,0.36,0.04,0.49
8.663,-0.94,0.58,0.44,1.20
8.673,-2.94,-0.44,-0.53,3.02
8.683,-1.52,0.77,-0.75,1.86
8.693,-0.20,-0.20,-0.29,0.40
8.703,0.55,-0.63,0.21,0.86
8.713,1.47,0.04,0.66,1.62
8.723,0.25,-1.01,-0.29,1.08
8.733,-1.26,-0.84,-0.21,1.53
8.743,-0.64,-0.55,-0.10,0.85
8.753,0.57,0.53,0.10,0.78
8.764,1.53,1.29,1.16,2.30
8.773,1.66,1.01,-0.88,2.13
8.784,0.30,0.75,-0.66,1.04
8.794,-1.10,0.54,0.44,1.30
8.804,-2.80,-0.89,-0.14,2.94
8.814,-1.88,-0.37,-0.38,1.96
8.824,0.42,0.05,-0.29,0.51
8.834,1.17,0.08,0.06,1.17
8.844,1.08,-0.08,0.30,1.12
8.854,0.24,-0.15,-0.11,0.30
8.864,-1.00,-0.83,-0.38,1.35
8.874,-1.36,-0.92,-0.07,1.65
8.884,0.26,-0.27,0.43,0.57
8.894,1.43,0.81,0.57,1.74
8.905,2.28,1.52,-0.11,2.74
8.915,0.79,0.96,-0.94,1.56
8.925,-1.09,0.63,0.27,1.29
8.935,-2.83,0.05,-0.07,2.83
8.945,-2.23,-0.77,-0.87,2.51
8.955,-0.34,-0.30,0.53,0.70
8.965,0.80,-0.71,-0.44,1.16
8.975,1.37,-0.35,0.31,1.45
8.985,0.78,0.10,0.46,0.91
8.995,-0.76,-1.18,-0.83,1.63
9.006,-0.95,-0.26,0.09,0.99
9.016,-0.38,-0.17,0.28,0.50
9.026,1.21,1.17,0.83,1.88
9.036,1.75,1.18,-0.64,2.21
9.046,1.00,0.45,-0.93,1.44
9.056,-0.32,1.26,0.92,1.59
9.066,-2.98,0.37,0.05,3.00
9.076,-2.16,-1.17,-1.49,2.87
9.086,-0.23,-0.28,0.25,0.44
9.096,0.54,-0.22,0.07,0.59
9.106,0.87,-1.30,0.27,1.59
9.116,0.52,0.15,0.54,0.77
9.127,-0.37,-0.99,-0.77,1.30
9.137,-0.54,-0.24,-0.32,0.68
9.147,0.50,0.62,0.92,1.22
9.157,0.98,0.45,0.24,1.10
9.167,1.20,1.39,-0.55,1.92
9.177,0.41,0.82,-0.28,0.96
9.187,-1.10,0.68,0.09,1.30
9.197,-2.32,0.38,0.19,2.36
9.207,-1.32,-0.33,-0.99,1.69
9.217,0.07,-0.49,-0.41,0.64
9.227,0.75,-0.90,0.55,1.29
9.237,0.35,-0.83,0.53,1.04
9.247,-0.21,-0.51,-0.08,0.56
9.257,0.12,-0.27,-0.61,0.68
9.268,-0.52,-0.20,-0.14,0.58
9.278,0.80,0.85,1.00,1.54
9.288,2.11,1.41,0.15,2.54
9.298,0.62,0.42,-1.08,1.31
9.308,-0.06,0.89,0.37,0.96
9.318,-1.40,0.30,0.30,1.47
9.328,-2.57,-0.25,-0.59,2.65
9.338,-0.88,0.36,-0.58,1.11
9.348,-0.29,-1.12,-0.57,1.29
9.358,0.71,-0.34,0.70,1.06
9.368,0.84,-0.84,0.39,1.25
9.379,-0.37,-1.08,-0.16,1.16
9.389,-0.28,-0.04,-0.27,0.39
9.399,0.16,0.29,-0.08,0.34
9.409,0.90,1.19,0.80,1.70
9.419,1.62,1.37,-0.36,2.15
9.429,0.65,0.65,-0.65,1.13
9.439,-0.31,0.34,0.31,0.56
9.449,-1.77,-0.82,0.16,1.96
9.459,-2.66,-0.98,-0.63,2.90
9.469,-0.48,0.20,-0.15,0.54
9.479,0.72,-0.05,-0.32,0.79
9.490,0.57,0.02,0.30,0.64
9.500,0.90,0.36,0.27,1.01
9.510,-0.08,-0.08,-0.48,0.49
9.520,-1.24,-0.79,-0.01,1.47
9.530,0.01,-0.39,-0.03,0.39
9.540,1.32,0.22,0.76,1.54
9.550,1.87,1.22,0.12,2.23
9.560,0.67,0.50,-0.65,1.06
9.570,-0.52,1.01,-0.05,1.14
9.580,-2.17,0.10,0.14,2.17
9.590,-2.56,-0.49,-0.93,2.77
9.600,-0.74,-0.15,-0.02,0.75
9.610,0.71,-0.57,0.01,0.91
9.621,1.02,-0.29,0.21,1.08
9.631,0.58,-0.10,0.52,0.78
9.641,-0.14,-0.57,-0.89,1.06
9.651,-0.75,-0.39,-0.01,0.85
9.661,-0.51,-0.25,0.23,0.61
9.671,1.14,0.74,1.06,1.72
9.681,1.78,1.07,-0.73,2.19
9.691,1.02,0.81,-0.61,1.44
9.701,-0.27,0.85,0.64,1.09
9.711,-2.00,-0.44,-0.27,2.06
9.722,-2.46,-0.01,-0.45,2.50
9.732,-1.09,-0.72,-0.76,1.51
9.742,0.23,-0.48,0.31,0.62
9.752,1.04,-0.20,0.21,1.08
9.762,0.92,-0.83,0.33,1.28
9.772,0.16,0.26,-0.31,0.44
9.782,-0.94,-0.59,-0.36,1.17
9.792,0.18,0.59,0.44,0.76
9.802,1.16,0.99,0.53,1.61
9.812,1.04,0.90,-0.68,1.53
9.822,0.73,0.94,-0.07,1.19
9.832,-0.64,-0.06,0.11,0.65
9.842,-1.55,-0.20,-0.02,1.56
9.853,-2.23,-0.57,-0.30,2.32
9.863,-0.59,-0.71,-1.18,1.50
9.873,0.42,-0.32,0.70,0.88
9.883,0.25,-0.48,0.27,0.61
9.893,0.34,-0.14,0.15,0.40
9.903,0.60,0.82,-0.30,1.06
9.913,-0.92,-0.88,-0.68,1.45
9.923,0.49,0.55,0.74,1.05
9.933,1.84,0.86,0.55,2.11
9.943,0.82,0.41,-0.73,1.17
9.953,0.34,0.69,0.34,0.84
9.963,-1.13,-0.34,-0.42,1.25
9.974,-2.27,0.01,-0.09,2.27
9.984,-1.56,0.44,0.00,1.62
9.994,-0.83,-1.10,-1.18,1.81
10.004,0.83,0.73,0.71,1.31
10.014,1.32,-0.43,0.03,1.39
10.024,0.19,-0.67,0.26,0.74
10.034,-0.19,0.09,-0.21,0.29
10.044,-0.64,-0.89,-0.62,1.26
10.054,-0.21,0.60,0.62,0.89
10.064,1.48,0.38,0.70,1.68
10.074,1.53,0.92,-1.03,2.06
10.085,0.33,0.90,0.45,1.06
10.095,-1.10,-0.28,-0.20,1.15
10.105,-2.43,-0.36,-0.31,2.47
10.115,-1.49,0.31,-0.28,1.55
10.125,-0.01,-0.17,-0.45,0.48
10.135,0.62,0.07,0.27,0.68
10.145,1.18,-0.25,0.05,1.21
10.155,0.28,-0.42,0.05,0.51
10.165,-1.15,-0.85,-0.02,1.43
10.175,-0.51,-0.37,-0.28,0.69
10.185,0.52,0.42,0.52,0.84
10.195,1.99,1.38,0.51,2.48
10.205,1.29,0.77,-0.93,1.77
10.216,0.33,1.00,-0.08,1.05
10.226,-1.32,-0.12,0.30,1.36
10.236,-3.31,-0.88,-0.31,3.44
10.246,-1.66,-0.24,-0.41,1.72
10.256,0.41,-0.31,-0.53,0.74
10.266,0.93,0.17,0.43,1.04
10.276,1.14,-0.32,0.40,1.25
10.286,0.16,-0.29,-0.41,0.52
10.296,-0.85,-0.20,-0.18,0.89
10.306,-0.95,-0.75,-0.18,1.23
10.316,0.25,0.19,0.65,0.72
10.327,2.01,1.19,0.54,2.40
10.337,1.63,1.23,-1.09,2.32
10.347,0.55,0.32,0.09,0.64
10.357,-1.01,0.04,0.07,1.01
10.367,-2.80,-0.97,0.12,2.97
10.377,-2.03,-0.13,-0.67,2.14
10.387,-0.59,-0.31,-0.42,0.79
10.397,0.74,0.13,0.06,0.75
10.407,1.40,0.05,0.27,1.43
10.417,0.88,-0.02,0.26,0.92
10.427,-0.67,-0.61,-0.43,1.00
10.437,-0.26,-0.34,0.00,0.43
10.448,0.29,-0.11,0.48,0.58
10.458,1.18,1.12,0.26,1.65
10.468,0.91,1.22,-0.58,1.63
10.478,0.20,0.90,-0.24,0.95
10.488,-1.04,-0.17,0.04,1.06
10.498,-1.92,-0.78,0.07,2.07
10.508,-1.15,-0.38,-0.70,1.40
10.518,-0.29,-0.58,-0.15,0.66
10.528,-0.29,-0.84,0.24,0.92
10.538,0.76,0.70,0.29,1.08
10.548,0.68,0.33,-0.34,0.82
10.559,-0.39,-0.62,-0.46,0.86
10.569,0.25,0.43,0.52,0.72
10.579,1.60,0.27,0.64,1.74
10.589,0.88,0.44,-0.64,1.17
10.599,-0.01,0.41,0.24,0.48
10.609,-0.29,0.53,-0.35,0.70
10.619,-1.49,-0.00,0.07,1.49
10.629,-1.94,0.10,-0.08,1.94
10.639,-0.78,-0.21,-1.27,1.51
10.649,0.02,-0.03,0.53,0.54
10.659,0.66,-0.55,-0.00,0.86
10.669,0.46,-0.85,0.45,1.06
10.680,0.06,0.34,-0.03,0.35
10.690,-0.16,-0.46,-0.74,0.88
10.700,-0.52,0.16,0.18,0.58
10.710,0.78,0.48,0.92,1.30
10.720,1.65,0.69,-0.37,1.83
10.730,0.77,0.81,-0.52,1.23
10.740,-0.31,0.29,0.34,0.54
10.750,-2.09,-0.40,-0.22,2.14
10.760,-1.92,0.51,-0.15,1.99
10.770,-0.54,0.22,-0.78,0.98
10.780,0.25,-0.27,0.16,0.40
10.790,1.25,0.23,0.14,1.28
10.801,0.52,-0.70,0.19,0.89
10.811,-0.88,-1.00,-0.19,1.35
10.821,-0.42,-0.71,-0.13,0.84
10.831,-0.33,-0.17,-0.03,0.37
10.841,1.00,0.69,0.62,1.36
10.851,2.05,1.34,0.40,2.48
10.861,0.84,1.08,-1.16,1.79
10.871,-0.34,0.55,-0.02,0.65
10.881,-2.48,-0.15,0.27,2.50
10.891,-2.52,-0.33,-0.26,2.56
10.901,-0.52,-0.50,-0.69,1.00
10.911,0.38,-0.28,-0.00,0.47
10.921,1.51,-0.04,0.56,1.61
10.932,0.72,-0.50,-0.18,0.89
10.942,-0.55,-0.42,0.04,0.69
10.952,-0.99,-0.80,-0.49,1.36
10.962,-0.60,-0.10,0.09,0.61
10.972,0.35,0.12,0.48,0.61
10.982,2.39,1.27,0.47,2.75
10.992,1.59,1.18,-0.83,2.15
11.002,0.13,0.50,-0.12,0.53
11.012,-1.86,0.50,0.40,1.97
11.022,-3.37,-0.62,-0.84,3.53
11.033,-0.97,0.00,-0.41,1.05
11.042,-0.12,-0.81,0.24,0.85
11.053,1.26,-0.47,-0.17,1.35
11.063,1.31,-0.07,0.73,1.50
11.073,0.02,-0.60,-0.52,0.79
11.083,-0.29,-0.48,-0.28,0.63
11.093,-1.01,-0.59,0.24,1.19
11.103,0.71,0.97,0.72,1.40
11.113,1.54,1.30,-0.01,2.01
11.123,0.85,0.76,-1.35,1.77
11.133,0.04,0.95,0.72,1.19
11.143,-1.98,0.80,0.16,2.14
11.154,-2.39,-0.89,-1.16,2.81
11.164,-0.45,-0.59,-0.10,0.75
11.174,-0.21,-0.85,0.28,0.92
11.184,0.78,-0.73,0.02,1.07
11.194,0.98,0.34,0.72,1.26
11.204,-0.27,-0.67,-0.74,1.04
11.214,-0.28,-0.14,-0.56,0.64
11.224,0.41,0.33,0.77,0.93
11.234,0.75,0.32,0.58,1.00
11.244,1.24,1.12,-0.32,1.71
11.254,0.40,0.49,-0.71,0.95
11.264,-0.67,0.74,0.11,1.01
11.274,-2.18,0.69,0.43,2.33
11.285,-1.98,-0.54,-1.14,2.35
11.294,-0.02,-0.09,-0.28,0.29
11.305,0.55,-0.74,0.17,0.93
11.315,0.63,-0.77,0.48,1.11
11.325,0.07,-0.51,0.42,0.67
11.335,-0.24,-0.49,-0.81,0.98
11.345,-0.30,0.11,-0.15,0.35
11.355,0.49,0.37,0.67,0.91
11.365,1.60,1.16,0.23,1.99
11.375,0.91,0.88,-0.41,1.33
11.385,0.01,0.61,-0.36,0.71
11.395,-1.29,-0.16,0.21,1.32
11.406,-2.03,-0.06,-0.17,2.04
11.416,-1.08,-0.27,-0.46,1.20
11.426,-0.01,-0.12,-0.24,0.27
11.436,0.60,0.14,0.20,0.64
11.446,0.81,-0.23,-0.15,0.85
11.456,-0.18,-0.71,0.28,0.79
11.466,-0.65,-0.48,-0.17,0.82
11.476,-0.19,-0.51,-0.41,0.68
11.486,0.83,0.60,0.90,1.36
11.496,1.57,0.88,0.31,1.83
11.506,1.00,0.84,-1.08,1.69
11.517,0.11,0.87,0.24,0.90
11.527,-1.43,-0.01,0.01,1.43
11.536,-2.61,-0.48,-0.10,2.65
11.547,-1.39,-0.19,-0.84,1.64
11.557,0.27,-0.34,-0.26,0.51
11.567,0.81,-0.07,0.53,0.97
11.577,0.85,-0.43,0.12,0.96
11.587,0.06,-0.27,0.03,0.28
11.597,-0.72,-0.24,-0.54,0.94
11.607,-0.89,-0.87,-0.25,1.27
11.617,0.45,0.04,0.72,0.85
11.627,2.25,1.25,0.67,2.66
11.637,1.35,0.70,-0.89,1.76
11.648,0.09,0.64,-0.25,0.69
11.658,-1.36,0.65,0.38,1.56
11.668,-2.79,-0.02,-0.39,2.82
11.678,-1.84,-0.20,-0.76,2.00
11.688,0.14,-0.33,-0.47,0.59
11.698,1.11,-0.49,0.61,1.36
11.708,0.65,-0.35,0.46,0.87
11.718,0.13,-0.48,-0.19,0.53
11.728,0.18,-0.16,-0.52,0.57
11.738,-0.55,-0.63,-0.14,0.85
11.749,0.51,0.72,1.12,1.42
11.759,1.57,1.22,-0.04,1.99
11.769,0.63,0.77,-1.13,1.51
11.779,0.12,1.02,0.45,1.12
11.789,-1.35,-0.29,0.06,1.38
11.799,-2.06,-0.06,-0.35,2.09
11.809,-1.34,-0.70,-0.50,1.59
11.819,-0.12,-0.71,-0.45,0.85
11.829,0.37,-0.33,0.53,0.73
11.839,1.05,-0.37,0.15,1.13
11.849,0.17,-0.27,-0.07,0.32
11.859,-0.49,0.24,-0.12,0.56
11.869,0.19,0.10,-0.18,0.28
11.880,1.12,0.92,0.65,1.59
11.890,0.95,0.95,-0.44,1.41
11.900,0.56,-0.05,-0.22,0.60
11.910,-0.16,0.63,0.28,0.71
11.920,-1.73,-0.33,0.16,1.77
11.930,-2.48,-0.45,-0.63,2.60
11.940,-0.45,0.22,-1.14,1.24
11.950,0.08,-0.76,0.41,0.86
11.960,0.70,0.13,0.65,0.97
11.970,0.84,-0.06,0.22,0.87
11.980,-0.03,0.10,-0.44,0.46
11.991,-0.76,-0.57,-0.74,1.21
12.001,-0.25,-0.63,0.35,0.76
12.011,1.45,0.78,1.12,1.99
12.021,1.40,0.61,-0.30,1.56
12.031,0.49,0.76,-0.61,1.09
12.041,-0.40,0.56,0.14,0.70
12.051,-1.56,-0.26,-0.08,1.58
12.061,-1.94,0.08,-0.31,1.97
12.071,-1.31,-0.63,-0.71,1.62
12.081,0.56,0.08,-0.15,0.58
12.091,0.81,-0.06,0.32,0.88
12.101,0.50,-0.56,0.40,0.85
12.112,0.04,-0.10,0.03,0.12
12.121,-0.62,-0.78,-0.71,1.23
12.132,0.19,0.27,0.28,0.43
12.142,1.03,0.45,0.98,1.49
12.152,1.56,0.82,-0.54,1.84
12.162,0.49,1.05,-0.33,1.20
12.172,-1.03,0.20,0.01,1.05
12.182,-2.13,-0.04,-0.10,2.13
12.192,-2.05,-0.58,-0.39,2.16
12.202,-0.09,0.05,-0.54,0.55
12.212,0.61,-0.26,0.45,0.80
12.222,0.77,-0.62,-0.21,1.01
12.232,0.53,-0.06,0.37,0.65
12.242,-0.69,-0.43,-0.31,0.87
12.253,-0.99,-0.55,-0.33,1.18
12.263,0.29,0.21,0.43,0.56
12.273,1.82,1.05,0.78,2.24
12.283,1.56,0.90,-0.72,1.94
12.293,0.44,0.56,-0.28,0.77
12.303,-0.70,0.29,0.19,0.78
12.313,-2.48,-0.82,0.05,2.61
12.323,-2.24,-0.15,-0.41,2.28
12.333,-0.42,-0.39,-0.85,1.03
12.343,0.72,0.22,0.40,0.85
12.353,0.86,-0.15,0.08,0.88
12.364,0.52,-0.45,0.26,0.74
12.374,0.02,0.49,-0.13,0.51
12.384,-0.87,-1.10,-0.48,1.49
12.394,-0.11,0.29,0.64,0.71
12.404,1.61,1.22,0.53,2.09
12.414,1.21,0.72,-0.92,1.68
12.424,0.57,0.95,0.06,1.11
12.434,-0.72,-0.28,-0.02,0.77
12.444,-1.89,-0.66,-0.09,2.00
12.454,-1.85,-0.08,-0.12,1.85
12.465,-1.03,-0.93,-1.00,1.72
12.474,0.41,0.70,0.76,1.11
12.485,1.09,0.35,-0.19,1.16
12.495,0.45,-0.76,-0.23,0.92
12.505,-0.11,0.20,0.28,0.36
12.515,-0.07,-0.78,-0.25,0.82
12.525,0.10,-0.22,0.36,0.43
12.535,1.05,0.77,0.78,1.52
12.545,1.19,1.03,-0.96,1.85
12.555,0.03,1.05,-0.23,1.08
12.565,-0.69,0.13,0.23,0.74
12.575,-1.82,-1.03,-0.22,2.11
12.585,-1.57,-0.12,-0.15,1.58
12.596,-0.40,-0.57,-0.79,1.06
12.606,-0.10,-0.61,0.42,0.75
12.616,0.64,0.55,0.40,0.94
12.626,0.73,0.16,-0.40,0.84
12.636,-0.20,0.03,-0.27,0.34
12.646,-0.22,-0.47,0.07,0.52
12.656,0.73,-0.00,0.49,0.88
12.666,1.29,0.57,0.45,1.48
12.676,0.48,0.41,-0.66,0.92
12.686,0.02,0.65,-0.12,0.66
12.696,-0.74,0.36,0.23,0.85
12.706,-1.98,-0.02,-0.31,2.00
12.717,-1.40,0.12,-0.61,1.53
12.727,0.04,0.20,-0.39,0.44
12.737,0.36,-0.61,0.30,0.77
12.747,0.46,-0.66,0.30,0.86
12.757,0.39,-0.23,0.18,0.49
12.767,-0.39,-0.35,-0.60,0.80
12.777,-0.29,-0.08,-0.04,0.30
12.787,0.31,0.05,0.50,0.59
12.797,1.58,0.79,0.49,1.83
12.807,1.25,0.83,-0.79,1.70
12.818,-0.45,0.31,-0.07,0.55
12.828,-1.45,0.36,0.43,1.55
12.838,-2.42,-0.39,-0.76,2.57
12.848,-1.02,0.58,-0.51,1.28
12.858,0.40,-0.34,0.26,0.58
12.868,0.98,-0.59,-0.21,1.16
12.878,0.85,0.06,0.59,1.03
12.888,-0.53,-0.79,-0.37,1.02
12.898,-1.12,-0.62,-0.19,1.29
12.908,-0.37,-0.27,-0.07,0.46
12.918,1.01,0.19,0.34,1.08
12.928,1.75,1.03,0.77,2.17
12.938,1.45,0.88,-0.72,1.85
12.948,0.13,0.72,-0.42,0.84
12.959,-1.64,0.42,0.23,1.71
12.969,-2.78,-0.09,-0.06,2.78
12.979,-1.54,-0.49,-0.91,1.85
12.989,0.39,-0.27,-0.07,0.48
12.999,1.10,-0.02,0.64,1.27
13.009,0.61,-1.23,-0.28,1.40
13.019,0.42,0.22,0.46,0.66
13.029,-0.75,-0.86,-0.61,1.30
13.039,-1.10,-0.26,-0.19,1.14
13.049,0.23,0.54,0.58,0.82
13.059,1.91,1.01,0.44,2.21
13.069,1.58,1.18,-0.61,2.07
13.080,0.48,0.35,-0.34,0.69
13.090,-1.10,0.29,0.31,1.18
13.100,-3.12,-0.22,-0.01,3.13
13.110,-1.58,-0.60,-1.10,2.02
13.120,-0.01,-0.19,0.46,0.50
13.130,1.10,0.03,-0.26,1.13
13.140,0.90,-0.69,0.37,1.19
13.150,0.15,-0.24,0.20,0.35
13.160,-0.07,-0.47,-0.71,0.85
13.170,-1.03,-0.70,0.07,1.25
13.181,0.41,0.77,0.94,1.28
13.191,1.83,1.17,0.06,2.17
13.201,0.92,0.84,-1.16,1.70
13.211,0.24,1.01,0.38,1.11
13.221,-2.25,0.30,0.07,2.27
13.231,-2.31,-0.17,-0.65,2.40
13.241,-0.76,-1.04,-0.48,1.37
13.251,0.20,-0.37,0.36,0.55
13.261,0.89,-0.53,0.22,1.06
13.271,0.68,-0.12,0.03,0.70
13.281,-0.31,-0.19,-0.21,0.42
13.291,-0.33,-0.35,-0.51,0.70
13.301,-0.26,-0.11,0.28,0.40
13.312,0.82,0.49,0.80,1.25
13.321,1.54,0.80,-0.06,1.74
13.332,0.47,0.20,-1.12,1.24
13.342,0.21,0.72,0.45,0.88
13.352,-1.68,0.74,0.55,1.92
13.362,-2.69,-0.10,-0.87,2.83
13.372,-0.40,0.25,-0.81,0.94
13.382,0.48,-0.22,-0.15,0.54
13.392,0.76,-0.65,0.55,1.14
13.402,0.64,-0.49,0.69,1.06
13.412,-0.46,-0.79,-0.48,1.03
13.423,-0.35,-0.21,-0.53,0.67
13.433,0.01,0.06,0.16,0.17
13.443,0.71,0.37,0.61,1.01
13.453,1.68,1.22,0.17,2.09
13.463,0.39,0.65,-0.78,1.09
13.473,-0.73,0.36,0.11,0.82
13.483,-1.75,-0.07,-0.18,1.76
13.493,-1.92,-0.00,-0.30,1.94
13.503,-0.51,-0.25,-0.20,0.60
13.513,0.56,-0.24,-0.27,0.67
13.523,0.84,-0.09,0.38,0.92
13.533,0.40,-0.57,-0.03,0.70
13.544,-0.77,-0.80,-0.09,1.12
13.554,-0.91,-0.91,-0.19,1.30
13.564,0.42,0.09,-0.01,0.43
13.574,1.53,0.86,1.19,2.12
13.584,1.83,1.06,-0.66,2.22
13.594,0.51,0.72,-0.76,1.17
13.604,-0.53,0.66,0.46,0.96
13.614,-2.57,-0.13,0.11,2.58
13.624,-2.55,-0.55,-0.71,2.70
13.634,-0.19,0.07,-0.65,0.68
13.644,0.74,0.03,0.26,0.79
13.655,0.98,-0.79,-0.00,1.26
13.664,0.70,-0.15,0.60,0.94
13.675,-0.37,-0.44,-0.31,0.66
13.685,-1.23,-0.78,-0.51,1.55
13.695,0.21,0.68,0.63,0.95
13.705,1.81,0.77,0.47,2.02
13.715,1.39,0.93,-0.94,1.92
13.725,0.53,0.60,0.30,0.86
13.735,-0.72,0.32,0.05,0.79
13.745,-2.34,0.19,0.09,2.35
13.755,-2.31,-0.45,-1.12,2.60
13.765,-0.79,-0.43,-0.68,1.12
13.775,1.20,0.14,0.88,1.49
13.786,0.83,-1.09,0.02,1.37
13.796,0.44,-0.11,0.41,0.61
13.806,0.32,-0.25,-0.53,0.66
13.816,-0.67,-0.59,-0.53,1.04
13.826,0.15,0.95,1.16,1.51
13.836,1.54,0.79,0.03,1.73
13.846,0.95,0.76,-0.93,1.53
13.856,0.12,1.05,0.67,1.25
13.866,-1.26,-0.08,-0.45,1.34
13.876,-2.21,-0.25,-0.06,2.22
13.886,-1.50,-0.08,-0.80,1.70
13.896,-0.33,-0.96,-0.29,1.06
13.907,0.78,0.15,0.76,1.09
13.917,0.89,-0.56,-0.19,1.07
13.927,0.27,-0.30,0.15,0.43
13.937,-0.33,0.09,-0.40,0.53
13.947,-0.44,-0.48,-0.10,0.66
13.957,0.64,0.80,0.79,1.29
13.967,1.27,0.73,-0.11,1.47
13.977,0.87,0.51,-0.72,1.24
13.987,0.38,0.81,0.38,0.97
13.997,-1.15,-0.36,0.05,1.20
14.007,-2.21,-0.02,-0.09,2.21
14.017,-1.45,-0.22,-0.89,1.72
14.028,-0.13,-0.42,-0.63,0.76
14.038,0.44,0.03,0.94,1.04
14.048,0.72,-0.47,0.10,0.86
14.058,0.45,-0.38,-0.31,0.66
14.068,-0.33,-0.05,0.05,0.34
14.078,-0.44,-0.46,-0.47,0.79
14.088,0.46,0.06,0.79,0.91
14.098,1.57,1.28,0.34,2.05
14.108,0.66,0.29,-0.75,1.04
14.118,0.13,1.16,-0.03,1.17
14.128,-1.21,-0.09,0.09,1.22
14.139,-2.23,-0.20,-0.26,2.25
14.149,-1.14,0.15,-0.41,1.22
14.159,-0.24,-1.20,-0.59,1.36
14.169,0.62,-0.12,0.42,0.76
14.179,0.67,-0.42,0.40,0.88
14.189,-0.12,-0.53,-0.03,0.55
14.199,-0.49,-0.07,-0.51,0.71
14.209,0.03,-0.07,-0.20,0.21
14.219,0.95,0.93,0.92,1.62
14.229,1.59,0.39,0.01,1.64
14.239,0.90,0.83,-0.69,1.40
14.249,-0.31,0.44,0.30,0.61
14.259,-1.78,-0.16,-0.09,1.79
14.270,-2.70,-0.43,-0.34,2.76
14.280,-1.01,-0.22,-0.71,1.26
14.290,0.43,-0.18,0.02,0.47
14.300,0.64,-0.39,0.39,0.84
14.310,1.46,0.28,0.09,1.49
14.320,-0.15,-0.92,-0.21,0.96
14.330,-1.09,0.13,-0.40,1.17
14.340,-0.37,0.05,0.46,0.59
14.350,1.27,0.96,0.26,1.61
14.360,1.52,0.90,-0.08,1.77
14.370,0.86,0.38,-0.58,1.10
14.381,0.23,0.40,0.14,0.48
14.391,-1.87,-0.61,0.48,2.03
14.401,-3.12,-0.86,-0.66,3.30
14.411,-1.09,0.26,-0.71,1.33
14.421,0.62,0.65,0.02,0.90
14.431,0.63,-0.81,-0.20,1.05
14.441,1.35,0.27,0.95,1.68
14.451,0.41,-0.28,-0.29,0.58
14.461,-0.89,-0.82,-0.76,1.43
14.471,-0.77,-0.12,0.72,1.06
14.481,1.13,0.52,0.49,1.34
14.491,1.65,1.50,-0.60,2.31
14.502,0.61,0.85,0.11,1.05
14.512,-0.43,0.08,-0.51,0.67
14.522,-1.69,-0.54,0.31,1.80
14.532,-2.15,-0.45,-0.25,2.21
14.542,-1.21,-0.81,-0.86,1.69
14.552,0.21,0.39,0.62,0.76
14.562,0.99,0.05,-0.27,1.03
14.572,0.95,0.02,0.05,0.96
14.582,0.08,-0.00,0.05,0.09
14.592,-0.79,-0.78,-0.33,1.16
14.602,-0.12,-0.02,0.39,0.41
14.613,1.16,0.26,0.63,1.34
14.622,1.22,1.06,-0.57,1.71
14.633,0.71,1.10,-0.24,1.33
14.643,-0.16,0.40,-0.06,0.43
14.653,-2.03,-0.82,0.10,2.19
14.663,-1.80,-0.19,-0.21,1.83
14.673,-0.60,-0.34,-0.85,1.09
14.683,-0.51,-0.75,0.26,0.94
14.693,0.88,0.53,0.45,1.12
14.703,0.72,-0.11,-0.44,0.86
14.713,0.22,0.28,0.12,0.38
14.724,-0.46,-0.71,-0.30,0.90
14.734,-0.21,-0.30,0.23,0.43
14.744,1.40,0.33,0.73,1.61
14.754,0.75,0.03,-0.28,0.80
14.764,0.15,1.13,-0.22,1.16
14.774,-0.36,0.55,-0.18,0.68
14.784,-1.87,0.58,-0.19,1.96
14.794,-1.80,-0.13,-0.32,1.84
14.804,-0.26,-0.62,-0.83,1.07
14.814,0.56,-0.19,0.75,0.95
14.824,0.58,-0.88,0.08,1.06
14.834,0.03,-0.49,0.18,0.52
14.844,-0.30,0.14,-0.36,0.48
14.854,-0.03,0.09,-0.53,0.54
14.865,0.07,0.28,0.47,0.56
14.875,1.50,0.33,0.84,1.75
14.885,1.41,0.68,-0.77,1.75
14.895,-0.04,0.26,-0.18,0.32
14.905,-0.94,0.49,0.49,1.17
14.915,-2.40,-0.52,-0.56,2.52
14.925,-1.69,0.52,-0.65,1.89
14.935,-0.07,0.28,-0.16,0.33
14.945,0.67,-0.86,0.03,1.09
14.955,1.28,0.29,0.51,1.41
14.966,0.11,-0.96,-0.03,0.97
14.975,-1.06,-0.56,-0.42,1.27
14.986,-0.56,-0.09,0.04,0.57
14.996,0.41,0.02,-0.08,0.42
15.006,1.47,1.18,1.05,2.16
15.016,1.65,0.78,-0.61,1.93
15.026,0.49,0.41,-0.76,0.99
15.036,-0.95,0.22,0.51,1.10
15.046,-2.87,-0.68,0.12,2.95
15.056,-1.99,0.16,-0.74,2.13
15.066,0.25,0.40,-0.49,0.68
15.076,0.67,-0.35,0.06,0.76
15.086,0.93,-0.39,0.45,1.10
15.096,0.70,-0.34,0.11,0.79
15.107,-0.72,-0.86,-0.33,1.17
15.117,-0.87,-0.37,-0.09,0.95
15.127,0.09,-0.07,0.10,0.15
15.137,1.52,1.06,0.73,1.99
15.147,1.74,1.58,-0.31,2.37
15.157,0.11,0.25,-0.83,0.88
15.167,-0.97,0.49,0.45,1.17
15.177,-2.65,0.03,-0.01,2.65
15.187,-1.78,-1.00,-1.15,2.34
15.197,0.04,0.01,0.43,0.43
15.207,0.77,-0.53,0.05,0.93
15.217,1.26,0.02,-0.00,1.26
15.228,0.22,-0.05,0.30,0.37
15.238,-0.73,-1.15,-0.84,1.60
15.248,-0.76,-0.24,0.21,0.83
15.258,0.12,-0.12,0.52,0.55
15.268,1.38,0.76,0.59,1.69
15.278,1.73,1.32,-0.90,2.36
15.288,0.56,0.64,-0.32,0.91
15.298,-1.12,1.01,0.39,1.56
15.308,-2.75,0.24,-0.19,2.77
15.318,-1.76,-0.96,-1.29,2.39
15.329,-0.05,-0.20,0.60,0.63
15.338,0.94,-0.54,-0.03,1.08
15.349,0.74,-0.72,0.25,1.07
15.359,0.48,0.17,0.37,0.63
15.369,-0.36,-0.66,-0.89,1.17
15.379,-0.67,0.02,-0.13,0.68
15.389,0.20,-0.03,0.46,0.50
15.399,1.04,0.43,0.65,1.30
15.409,1.16,1.19,-0.20,1.67
15.419,0.14,0.14,-1.08,1.10
15.429,-0.67,0.92,0.44,1.22
15.439,-2.47,0.46,0.17,2.52
15.449,-1.65,-0.66,-1.03,2.05
15.460,0.35,0.24,0.09,0.44
15.470,0.66,-0.86,-0.29,1.12
15.480,0.54,-0.79,0.64,1.15
15.490,-0.03,-0.40,0.25,0.47
15.500,-0.26,-0.74,-0.73,1.07
15.510,-0.56,0.02,-0.08,0.56
15.520,-0.26,-0.41,-0.17,0.51
15.530,0.51,-0.36,0.19,0.65
15.540,0.27,0.19,0.08,0.34
15.550,-0.50,-0.43,-0.07,0.66
15.560,-0.65,0.63,-0.28,0.95
15.570,-1.74,0.87,-0.33,1.97
15.581,-1.38,0.15,-1.09,1.77
15.591,-0.70,-0.77,-0.13,1.05
15.601,0.19,-0.33,0.72,0.81
15.611,0.98,-1.04,0.34,1.46
15.621,0.05,-1.06,-0.76,1.31
15.631,0.04,0.09,0.53,0.54
15.641,2.06,1.53,1.47,2.96
15.651,2.52,2.27,-0.75,3.47
15.661,1.86,2.15,-0.74,2.93
15.671,-0.09,1.03,-0.03,1.03
15.682,-1.45,0.47,0.40,1.58
15.691,-2.12,0.20,0.75,2.25
15.702,-2.61,-2.25,-2.14,4.05
15.712,0.24,-0.56,-0.11,0.62
15.722,0.87,-0.81,0.92,1.50
15.732,0.40,-1.01,0.25,1.11
15.742,0.51,0.07,0.36,0.62
15.752,-0.16,-0.36,-1.01,1.08
15.762,-0.78,0.30,-0.42,0.93
15.772,0.51,0.62,1.32,1.54
15.782,1.85,1.29,0.01,2.26
15.792,0.78,0.83,-0.69,1.33
15.803,0.18,0.51,-0.11,0.55
15.812,-0.78,-0.30,-0.04,0.84
15.823,-1.37,-1.23,0.09,1.84
15.833,-0.87,-1.12,-0.09,1.42
15.843,-0.28,-0.81,-0.31,0.91
15.853,0.65,-0.25,-0.10,0.71
15.863,0.64,-0.15,0.19,0.68
15.873,0.44,-0.04,0.12,0.46
15.883,0.36,0.26,-0.36,0.57
15.893,-0.11,-0.34,0.80,0.87
15.904,0.49,1.74,-0.22,1.82
15.913,0.69,-0.94,-0.62,1.32
15.923,1.62,0.43,-0.52,1.75
15.933,0.53,0.02,1.18,1.29
15.944,-0.81,-1.12,0.57,1.49
15.954,-2.18,-0.04,-0.84,2.33
15.964,-4.79,1.24,-0.45,4.97
15.974,-0.88,1.50,-2.76,3.26
15.984,-0.49,0.93,1.32,1.69
15.994,2.03,0.57,0.13,2.11
16.004,2.67,-0.33,0.99,2.87
16.014,0.25,0.07,-0.07,0.27
16.024,-1.63,-1.55,-0.91,2.43
16.034,-0.55,-0.44,0.60,0.93
16.044,0.57,0.30,-0.14,0.66
16.055,0.92,0.25,0.12,0.96
16.065,0.72,1.07,0.19,1.30
16.075,-1.80,0.63,-0.53,1.98
16.085,-1.95,0.59,-0.79,2.18
16.095,-0.90,-0.29,-0.48,1.06
16.105,0.28,-0.46,0.34,0.63
16.115,0.90,-0.97,0.42,1.38
16.125,0.49,-0.70,0.34,0.92
16.135,-0.65,-0.80,-0.65,1.21
16.145,-0.61,-0.44,-0.30,0.81
16.156,0.44,0.62,0.67,1.01
16.165,1.65,0.88,0.60,1.97
16.176,1.47,1.16,-0.95,2.10
16.186,0.39,0.83,-0.15,0.93
16.196,-1.20,0.06,0.21,1.22
16.206,-2.43,-0.37,-0.12,2.46
16.216,-1.75,-0.38,-0.46,1.85
16.226,-0.04,-0.55,-0.69,0.88
16.236,0.49,-0.73,0.12,0.88
16.246,1.24,0.05,0.73,1.44
16.256,0.21,-0.50,-0.01,0.54
16.266,-1.07,-0.09,-0.40,1.15
16.276,-0.29,0.55,-0.11,0.63
16.286,0.87,0.46,0.12,0.99
16.297,1.77,0.95,0.45,2.05
16.307,1.08,0.19,-0.50,1.21
16.317,-0.08,-0.01,-0.02,0.08
16.327,-1.30,0.02,0.37,1.35
16.337,-2.88,-0.75,-0.30,2.99
16.347,-1.75,0.10,-1.25,2.15
16.357,0.89,0.57,0.17,1.08
16.367,0.82,-0.28,0.09,0.87
16.377,0.91,-0.30,0.64,1.16
16.387,0.30,-0.24,-0.09,0.39
16.397,-0.92,-0.58,-0.87,1.40
16.408,-0.92,-0.44,0.36,1.08
16.418,0.99,0.58,0.83,1.42
16.428,1.82,1.11,-0.32,2.15
16.438,1.08,1.17,-0.52,1.67
16.448,-0.22,0.26,-0.14,0.37
16.458,-1.77,-0.20,0.06,1.78
16.468,-2.50,-0.50,0.18,2.55
16.478,-1.02,-0.60,-1.13,1.64
16.488,0.18,-0.12,0.30,0.36
16.498,1.20,0.63,-0.23,1.38
16.508,0.44,0.57,-0.30,0.78
16.518,-0.73,2.89,-1.98,3.58
16.528,0.52,4.89,-2.74,5.63
16.539,-0.43,2.81,-0.73,2.94
16.549,0.05,3.91,0.20,3.92
16.559,1.20,4.26,-2.46,5.06
16.569,-0.29,-10.45,10.32,14.69
16.579,-2.86,-2.56,-0.38,3.86
16.589,2.67,2.28,-9.69,10.30
16.599,-1.10,-5.22,12.44,13.54
16.609,-0.38,-2.45,0.33,2.50
16.619,-0.67,1.87,-4.39,4.82
16.629,0.47,-1.43,-4.27,4.53
16.639,-0.38,-1.50,-1.15,1.93
16.650,0.24,-0.53,3.77,3.81
16.660,1.29,0.35,1.10,1.73
16.670,-0.72,-0.02,1.16,1.37
16.680,-0.70,-0.20,-1.30,1.49
16.690,0.78,0.06,-2.39,2.51
16.700,0.73,0.81,0.70,1.29
16.710,0.91,0.70,0.82,1.41
16.720,0.27,0.18,0.76,0.82
16.730,-0.89,-0.08,0.01,0.90
16.740,-1.75,-0.75,-1.36,2.34
16.750,-1.59,0.07,-1.19,1.99
16.761,-0.17,-0.06,0.80,0.82
16.771,0.20,0.10,0.58,0.62
16.781,0.83,0.14,-0.11,0.85
16.791,0.61,0.24,-0.20,0.68
16.801,-0.46,-0.61,-0.95,1.22
16.811,-0.53,-1.30,0.60,1.53
16.821,1.14,0.68,0.83,1.57
16.831,1.19,0.05,0.23,1.22
16.841,0.65,1.12,-0.76,1.50
16.851,-0.19,0.70,-0.35,0.81
16.861,-1.24,0.62,-0.31,1.42
16.871,-2.17,-0.07,0.53,2.23
16.881,-1.08,-0.64,-1.18,1.73
16.892,0.58,-0.06,0.22,0.63
16.902,0.45,-0.40,0.07,0.60
16.912,0.06,-0.90,0.09,0.91
16.922,0.41,0.52,0.65,0.93
16.932,-0.57,-0.49,-1.22,1.44
16.942,-0.54,-0.17,0.49,0.75
16.952,1.43,0.80,0.52,1.72
16.962,1.46,0.14,-0.31,1.50
16.972,1.27,1.13,-0.33,1.73
16.983,-0.78,-0.14,0.54,0.96
16.992,-2.56,-0.00,-0.44,2.60
17.003,-1.88,0.76,-0.47,2.08
17.013,-0.59,-0.32,-0.87,1.10
17.023,0.50,-0.10,0.40,0.65
17.033,1.37,-0.34,0.31,1.44
17.043,0.55,-0.62,0.11,0.84
17.053,-0.75,-0.38,0.24,0.88
17.063,-0.99,-0.88,-0.81,1.56
17.073,-0.18,0.15,0.07,0.24
17.083,1.06,1.22,0.95,1.88
17.093,1.63,0.32,-0.31,1.68
17.103,1.16,1.01,-0.74,1.71
17.113,-0.10,0.59,0.55,0.82
17.123,-2.60,-0.73,-0.45,2.74
17.134,-2.43,0.01,-0.08,2.43
17.144,-0.61,-0.17,-0.61,0.88
17.154,0.58,0.12,-0.24,0.64
17.164,1.40,-0.14,0.55,1.51
17.174,0.69,-0.45,-0.11,0.83
17.184,-0.56,-0.46,0.12,0.74
17.194,-1.08,-0.81,-0.55,1.46
17.204,-0.86,-0.55,0.13,1.03
17.214,0.76,0.19,0.49,0.92
17.224,3.13,2.00,0.57,3.76
17.235,1.15,0.95,-0.88,1.73
17.245,-0.45,0.48,-0.22,0.70
17.255,-2.40,0.48,0.28,2.46
17.265,-2.74,-0.51,-1.04,2.98
17.275,-0.74,-0.84,0.11,1.13
17.285,0.44,-0.36,0.16,0.59
17.295,1.65,-0.35,0.04,1.68
17.305,1.26,0.44,0.49,1.42
17.315,-0.88,-0.77,-0.73,1.38
17.325,-0.88,-0.60,-0.33,1.11
17.335,-0.97,-0.40,0.23,1.08
17.345,0.37,0.21,0.80,0.91
17.355,2.21,1.25,0.28,2.55
17.366,1.39,0.84,-1.23,2.04
17.376,0.04,1.08,0.43,1.16
17.386,-2.56,0.36,-0.11,2.59
17.396,-2.63,-0.82,-0.92,2.90
17.406,-0.71,-0.35,0.25,0.83
17.416,0.23,-0.83,-0.27,0.90
17.426,1.19,-0.60,0.47,1.42
17.436,1.09,0.27,0.15,1.13
17.446,-0.49,-0.63,-0.46,0.92
17.456,-0.65,-0.05,-0.17,0.68
17.466,-0.26,-0.29,0.08,0.39
17.476,0.84,0.46,0.41,1.05
17.487,1.64,1.09,0.58,2.05
17.497,0.39,0.23,-1.46,1.53
17.507,0.00,0.55,0.47,0.72
17.517,-1.53,1.30,0.48,2.07
17.527,-2.89,-1.13,-1.39,3.40
17.537,-0.03,0.30,0.06,0.31
17.547,0.44,-0.29,-0.13,0.55
17.557,0.59,-1.07,0.05,1.22
17.567,0.49,0.06,1.11,1.21
17.577,-0.50,-0.72,-0.91,1.26
17.588,-0.51,-0.00,-0.47,0.69
17.598,0.13,0.25,0.78,0.83
17.608,1.67,0.84,0.15,1.87
17.618,1.54,0.63,-0.29,1.69
17.628,0.52,0.60,-0.24,0.83
17.638,-1.42,-0.03,0.46,1.49
17.648,-2.32,0.68,-0.42,2.46
17.658,-1.69,-0.56,-0.92,2.01
17.668,-0.31,0.01,-0.27,0.41
17.678,0.93,-0.31,0.18,0.99
17.688,1.13,-0.70,0.53,1.43
17.698,-0.02,-0.34,0.17,0.38
17.708,-0.96,-0.77,-0.52,1.34
17.719,-0.14,-0.13,-0.52,0.55
17.729,0.51,0.66,1.11,1.39
17.739,1.48,0.99,0.01,1.78
17.749,1.26,0.67,-0.69,1.58
17.759,0.47,0.89,0.19,1.03
17.769,-1.44,-0.21,0.02,1.45
17.779,-2.95,-0.68,-0.10,3.03
17.789,-1.22,0.09,-0.93,1.53
17.799,0.24,-0.13,-0.24,0.37
17.809,0.68,0.14,0.49,0.85
17.819,0.96,-0.61,0.02,1.14
17.830,0.14,-0.19,0.15,0.28
17.840,-0.79,-0.46,-0.32,0.97
17.850,-1.11,-1.22,-0.46,1.72
17.860,1.33,1.03,1.18,2.06
17.870,2.24,1.33,0.02,2.60
17.880,0.76,0.50,-0.96,1.32
17.890,0.22,1.26,0.42,1.35
17.900,-1.78,-0.16,-0.28,1.81
17.910,-2.96,-0.50,-0.12,3.01
17.920,-1.17,-0.18,-0.75,1.41
17.930,0.40,-0.57,-0.19,0.72
17.940,1.21,-0.15,0.58,1.35
17.950,1.02,-0.12,0.26,1.06
17.961,-0.08,-0.40,-0.23,0.47
17.971,-0.86,0.10,-0.64,1.08
17.981,-0.95,-0.82,0.26,1.29
17.991,0.63,0.59,0.46,0.98
18.001,1.86,0.70,0.47,2.04
18.011,1.39,0.85,-1.09,1.96
18.021,0.04,0.53,0.48,0.71
18.031,-1.47,0.44,-0.09,1.53
18.041,-2.81,-0.36,-0.32,2.85
18.051,-1.44,-0.12,-0.64,1.58
18.061,0.04,-0.53,-0.31,0.62
18.071,0.92,-0.53,0.42,1.15
18.082,1.46,-0.31,0.18,1.50
18.092,0.15,-0.46,0.31,0.58
18.102,-0.95,-0.16,-0.64,1.16
18.112,-0.76,-0.40,-0.20,0.88
18.122,0.76,0.77,0.71,1.29
18.132,1.68,1.07,0.13,1.99
18.142,0.86,0.29,-0.75,1.18
18.152,0.43,0.75,0.29,0.92
18.162,-1.35,0.02,0.08,1.36
18.172,-2.92,-0.61,-0.51,3.03
18.182,-1.04,0.03,-0.68,1.25
18.193,0.17,-0.51,-0.10,0.55
18.203,0.59,-0.40,0.28,0.77
18.213,0.86,-0.18,0.54,1.03
18.223,0.23,-0.24,-0.27,0.43
18.233,-0.77,0.02,-0.50,0.92
18.243,-0.36,-0.27,0.17,0.48
18.253,1.54,0.79,0.72,1.87
18.263,1.56,0.65,-0.39,1.74
18.273,0.56,0.28,-0.03,0.62
18.283,-0.56,0.49,-0.22,0.78
18.293,-1.99,-0.03,0.16,1.99
18.303,-1.96,0.22,-0.48,2.03
18.313,-1.09,-0.73,-0.93,1.61
18.324,0.75,0.07,0.24,0.79
18.334,1.13,-0.48,0.25,1.26
18.344,0.38,-0.61,0.52,0.89
18.354,-0.58,0.01,-0.12,0.60
18.364,-0.55,-0.23,-0.80,0.99
18.374,-0.08,0.25,0.17,0.32
18.384,1.33,0.44,0.92,1.68
18.394,1.60,0.62,-0.58,1.81
18.404,0.65,0.75,-0.08,1.00
18.414,-1.04,0.04,0.26,1.08
18.424,-2.68,-0.30,-0.61,2.76
18.434,-1.82,0.16,-0.37,1.86
18.445,0.09,0.10,-0.61,0.63
18.455,0.43,-0.28,0.51,0.72
18.465,1.27,-0.16,0.01,1.28
18.475,0.32,-0.35,0.30,0.56
18.485,-0.84,-0.51,-0.41,1.07
18.495,-1.15,-0.87,-0.48,1.52
18.505,0.86,0.74,0.68,1.32
18.515,1.98,0.97,0.83,2.36
18.525,1.25,1.02,-1.06,1.93
18.535,0.31,0.78,-0.02,0.84
18.545,-1.05,0.09,-0.22,1.07
18.556,-2.80,-1.03,0.19,2.98
18.566,-1.47,-0.10,-0.20,1.49
18.576,-0.13,-0.53,-0.84,1.00
18.586,1.07,0.75,0.34,1.35
18.596,0.89,-0.31,0.06,0.94
18.606,0.14,-0.08,0.12,0.20
18.616,-0.66,0.06,-0.15,0.68
18.626,-1.05,-1.52,-0.51,1.91
18.636,-0.44,-0.05,0.56,0.71
18.646,1.82,0.63,1.03,2.19
18.656,1.95,1.38,-1.01,2.60
18.666,0.51,0.79,-0.09,0.94
18.677,-0.67,0.24,-0.13,0.73
18.687,-2.26,-0.39,-0.16,2.30
18.697,-2.27,-0.53,0.12,2.33
18.707,-0.64,-0.39,-0.82,1.11
18.717,0.59,-0.16,0.24,0.66
18.727,1.56,0.54,0.03,1.65
18.737,0.65,-0.13,0.34,0.75
18.747,-0.77,-0.51,-0.20,0.95
18.757,-0.46,-0.23,-0.59,0.78
18.767,-0.17,-0.67,0.39,0.79
18.777,0.88,0.47,0.99,1.41
18.788,1.55,0.99,-0.51,1.91
18.798,0.51,1.11,-0.78,1.45
18.808,-0.51,0.24,0.14,0.58
18.818,-1.84,-0.86,-0.05,2.03
18.828,-1.69,-0.06,-0.04,1.69
18.838,-0.35,-0.51,-0.62,0.88
18.848,-0.53,-0.61,0.03,0.81
18.858,0.66,0.50,0.44,0.94
18.868,1.05,0.13,-0.58,1.21
18.878,-0.26,0.05,0.18,0.32
18.888,-0.46,-0.66,0.03,0.81
18.898,0.56,-0.08,0.18,0.59
18.909,1.36,0.60,0.46,1.55
18.919,0.48,-0.18,-0.38,0.64
18.929,-0.10,0.70,-0.15,0.73
18.939,-0.55,1.20,0.41,1.39
18.949,-2.16,-0.32,-0.72,2.30
18.959,-1.40,0.19,-0.75,1.60
18.969,0.32,0.24,-0.14,0.42
18.979,0.52,-0.97,0.19,1.12
18.989,0.62,-0.44,0.83,1.12
18.999,0.03,-0.56,-0.15,0.58
19.009,-0.56,-0.08,-0.77,0.96
19.020,-0.48,0.19,-0.05,0.52
19.030,0.30,-0.13,0.65,0.73
19.040,1.96,1.07,0.39,2.26
19.050,1.27,0.88,-0.76,1.72
19.060,-0.26,0.18,-0.08,0.33
19.070,-2.03,-0.07,0.29,2.06
19.080,-2.22,0.28,-0.07,2.24
19.090,-0.56,0.10,-1.06,1.20
19.100,0.02,-0.58,0.13,0.59
19.110,1.24,0.05,0.06,1.24
19.120,0.63,-0.61,0.36,0.95
19.130,-0.61,-0.35,-0.03,0.70
19.140,-1.11,-1.12,-0.44,1.63
19.150,-0.10,-0.18,-0.08,0.22
19.161,1.32,1.03,0.48,1.74
19.171,1.86,0.91,0.87,2.25
19.181,0.97,0.82,-1.20,1.75
19.191,-0.26,0.88,-0.10,0.93
19.201,-1.94,0.08,0.15,1.95
19.211,-2.65,-0.85,-0.41,2.81
19.221,-0.48,-0.07,-0.23,0.54
19.231,0.76,-0.07,-0.24,0.80
19.241,0.90,-0.19,0.47,1.04
19.251,0.72,-0.10,-0.26,0.77
19.262,-0.30,-0.33,0.15,0.47
19.272,-1.23,-0.86,-0.59,1.61
19.282,-1.02,-0.60,0.30,1.21
19.292,0.47,0.36,0.21,0.63
19.302,1.53,0.35,0.50,1.65
19.312,2.18,1.62,-0.34,2.73
19.322,0.39,0.29,-0.49,0.69
19.332,-1.55,0.69,0.19,1.71
19.342,-3.08,-0.20,-0.28,3.10
19.352,-1.83,-0.75,-0.97,2.20
19.362,0.37,-0.07,0.47,0.60
19.372,1.10,-0.85,-0.09,1.39
19.382,1.75,0.28,0.39,1.81
19.393,-0.10,-0.60,0.21,0.64
19.403,-0.74,-0.68,-0.98,1.41
19.413,-1.43,-0.69,0.13,1.60
19.423,0.07,0.47,0.58,0.75
19.433,2.03,1.26,0.94,2.57
19.443,1.58,0.87,-1.46,2.32
19.453,0.66,0.84,-0.14,1.08
19.463,-1.97,0.69,0.63,2.18
19.473,-3.00,-0.25,-0.85,3.13
19.483,-1.01,-0.97,-0.29,1.43
19.493,0.01,-0.12,0.05,0.13
19.503,1.11,-0.46,0.08,1.20
19.514,1.28,-0.17,0.30,1.33
19.524,-0.29,-0.33,0.13,0.46
19.534,-0.62,-0.42,-0.69,1.02
19.544,-0.43,-0.20,-0.00,0.47
19.554,0.86,0.50,0.69,1.21
19.564,1.52,0.53,0.29,1.64
19.574,0.30,0.42,-0.98,1.11
19.584,0.17,0.83,0.25,0.89
19.594,-1.74,0.65,0.26,1.87
19.604,-2.84,-0.13,-0.84,2.97
19.614,-0.14,0.05,-0.44,0.46
19.625,0.87,-0.21,-0.23,0.92
19.634,0.57,-0.72,0.63,1.12
19.645,0.30,-0.74,0.45,0.92
19.655,-0.43,-0.59,-0.37,0.82
19.665,-0.54,-0.02,-0.45,0.70
19.675,-0.32,-0.35,0.07,0.48
19.685,1.45,0.96,0.86,1.94
19.695,1.87,1.14,-0.13,2.19
19.705,0.46,0.46,-1.02,1.20
19.715,-0.41,0.85,0.76,1.21
19.725,-2.44,0.17,-0.08,2.44
19.736,-2.13,-0.20,-1.13,2.42
19.746,-0.44,-0.19,0.12,0.49
19.756,0.23,-0.43,-0.28,0.57
19.766,1.11,-0.73,0.56,1.44
19.776,0.80,-0.44,0.35,0.98
19.786,-0.97,-1.11,-0.67,1.62
19.796,-0.49,-0.24,-0.19,0.58
19.806,0.79,0.80,0.76,1.36
19.816,1.35,1.09,0.40,1.78
19.826,1.43,1.17,-0.94,2.07
19.836,0.43,0.87,-0.19,0.99
19.846,-0.90,-0.00,0.32,0.95
19.856,-2.50,-1.04,0.08,2.71
19.867,-2.03,-0.44,-0.59,2.16
19.877,-0.15,-0.19,-0.51,0.57
19.887,0.56,0.09,0.18,0.60
19.897,0.79,-0.23,0.14,0.83
19.907,0.87,0.25,0.31,0.96
19.917,-0.27,-0.08,-0.32,0.42
19.927,-1.27,-0.76,-0.45,1.55
19.937,-0.32,-0.26,0.38,0.56
19.947,1.91,0.68,0.66,2.13
19.957,1.67,0.70,-0.07,1.81
19.967,0.75,0.54,-0.70,1.16
19.978,-0.94,0.20,0.31,1.01
19.988,-2.79,0.42,-0.15,2.82
19.998,-2.50,-0.54,-0.77,2.67
20.008,-0.47,-0.10,-0.37,0.61
20.018,0.80,0.03,0.19,0.82
20.028,1.51,-0.16,0.43,1.58
20.038,0.49,-0.00,0.36,0.61
20.048,-0.05,-0.31,-0.75,0.81
20.058,-0.64,-0.89,-0.37,1.16
20.068,-0.53,-0.29,0.81,1.02
20.078,1.51,0.51,0.63,1.71
20.088,1.38,0.71,-0.80,1.75
20.098,0.59,0.75,-0.16,0.96
20.109,-0.61,0.25,-0.02,0.66
20.119,-2.50,-0.07,0.27,2.52
20.129,-2.04,0.15,-0.88,2.23
20.139,-0.66,-0.68,-0.52,1.08
20.149,0.57,0.53,0.37,0.86
20.159,1.15,-0.66,0.04,1.33
20.169,1.01,-0.25,0.46,1.14
20.179,-0.27,0.03,-0.28,0.39
20.189,-0.75,-0.88,-0.40,1.23
20.199,0.60,0.86,0.66,1.24
20.209,1.12,0.47,0.31,1.26
20.220,0.55,0.25,-1.04,1.21
20.230,0.74,1.05,0.64,1.43
20.240,-0.82,-0.07,-0.05,0.83
20.250,-2.59,-0.40,-0.35,2.64
20.260,-1.38,0.37,-0.47,1.50
20.270,-0.30,-0.76,-1.04,1.32
20.280,0.39,-0.06,1.02,1.10
20.290,0.72,-0.33,0.13,0.81
20.300,0.52,-0.41,-0.09,0.67
20.310,-0.42,-0.05,-0.16,0.45
20.320,-0.62,-0.78,-0.54,1.14
20.330,0.87,0.55,1.12,1.52
20.340,1.58,0.85,0.06,1.80
20.351,0.79,0.72,-0.74,1.30
20.361,0.16,0.91,0.20,0.95
20.371,-1.63,-0.24,-0.28,1.67
20.381,-2.41,0.04,-0.04,2.41
20.391,-1.38,-0.26,-0.51,1.49
20.401,-0.02,-0.68,-0.54,0.87
20.411,0.96,0.01,0.57,1.12
20.421,0.84,-0.65,0.18,1.08
20.431,-0.07,-0.37,0.07,0.38
20.441,-0.50,0.05,-0.37,0.62
20.451,0.06,-0.07,-0.22,0.24
20.462,0.68,0.60,0.81,1.22
20.472,1.55,0.82,-0.11,1.76
20.482,0.86,0.89,-0.69,1.42
20.492,-0.40,0.19,0.47,0.64
20.502,-1.73,-0.20,-0.18,1.75
20.512,-2.39,-0.42,-0.47,2.48
20.522,-0.66,0.13,-0.54,0.86
20.532,0.26,-0.05,0.14,0.30
20.542,0.58,-0.28,0.11,0.66
20.552,0.95,0.08,0.29,0.99
20.563,-0.31,-0.74,-0.38,0.89
20.573,-1.25,-0.72,-0.19,1.45
20.583,-0.28,-0.19,0.16,0.37
20.593,1.11,0.37,0.61,1.32
20.603,1.92,1.27,0.13,2.31
20.613,1.12,0.49,-0.35,1.28
20.623,-0.19,0.16,1.31,1.34
20.633,-2.01,0.12,-1.48,2.50
20.643,-2.93,-0.41,-2.14,3.65
20.653,-1.21,0.42,-0.40,1.34
20.663,0.92,0.37,1.43,1.74
