time,ax,ay,az,atotal
0.000,1.21,0.02,2.00,2.34
0.010,0.66,-0.46,0.41,0.90
0.020,-0.13,-0.34,-1.61,1.65
0.030,-0.79,-0.20,-1.14,1.40
0.040,-0.77,-0.60,1.03,1.42
0.050,1.28,1.03,1.65,2.33
0.060,1.66,0.88,-0.91,2.08
0.071,1.18,1.07,-0.91,1.84
0.081,0.17,1.00,0.43,1.11
0.091,-2.51,-0.51,0.05,2.57
0.101,-2.60,-0.07,-0.64,2.68
0.111,-0.89,-0.48,-0.28,1.05
0.121,0.34,-0.41,-0.15,0.56
0.131,1.12,-0.72,0.32,1.36
0.141,1.17,-0.22,0.27,1.22
0.151,-0.19,-0.39,-0.17,0.47
0.161,-0.72,-0.09,-0.41,0.84
0.171,0.03,0.42,0.67,0.79
0.182,1.07,1.15,0.03,1.57
0.192,1.27,1.26,-0.48,1.85
0.202,0.84,0.76,-0.02,1.13
0.212,-0.56,0.14,0.18,0.61
0.222,-1.81,-0.29,0.03,1.83
0.232,-2.00,-0.25,-0.87,2.19
0.242,-0.76,-0.74,-0.68,1.26
0.252,0.46,-0.32,0.94,1.09
0.262,0.52,-0.64,-0.10,0.83
0.272,0.77,0.12,0.21,0.81
0.282,0.19,0.48,-0.56,0.76
0.293,-0.88,-0.83,-0.22,1.23
0.303,0.90,1.09,1.06,1.77
0.313,1.70,0.91,-0.12,1.94
0.323,0.67,0.41,-0.67,1.03
0.333,0.44,0.89,0.39,1.06
0.343,-1.35,-0.61,-0.20,1.49
0.353,-2.01,0.37,-0.07,2.04
0.363,-1.75,-0.45,-0.61,1.91
0.373,-0.37,-0.53,-0.65,0.92
0.383,0.87,0.24,0.83,1.23
0.393,1.02,-0.43,0.06,1.11
0.404,0.17,-0.22,0.09,0.29
0.413,-0.18,0.04,-0.49,0.52
0.424,-0.34,-0.05,-0.24,0.42
0.434,0.40,0.34,1.06,1.18
0.444,1.77,0.84,0.26,1.97
0.454,0.74,0.78,-1.01,1.47
0.464,-0.25,0.17,0.27,0.40
0.474,-1.37,-0.23,-0.22,1.40
0.484,-2.20,-0.18,0.07,2.21
0.494,-0.62,0.78,-0.68,1.21
0.504,0.11,-0.20,-0.26,0.35
0.514,0.54,0.25,0.32,0.68
0.525,1.10,-0.22,0.06,1.12
0.534,-0.16,-0.59,-0.25,0.66
0.545,-0.90,-0.91,0.16,1.29
0.555,-0.08,-0.20,-0.05,0.22
0.565,0.89,0.72,0.73,1.36
0.575,1.77,1.39,-0.02,2.24
0.585,0.75,0.88,-1.07,1.57
0.595,0.00,0.72,0.33,0.79
0.605,-1.43,-0.44,0.16,1.51
0.615,-2.81,-0.82,-0.23,2.94
0.625,-1.47,-0.25,-0.78,1.68
0.635,0.81,0.12,-0.17,0.84
0.646,0.85,0.06,0.63,1.06
0.656,0.77,-0.20,-0.08,0.80
0.666,0.13,-0.16,-0.33,0.39
0.676,-0.84,-0.29,-0.34,0.95
0.686,-0.69,-0.63,0.40,1.02
0.696,0.96,0.77,0.76,1.45
0.706,2.01,1.25,-0.39,2.40
0.716,1.21,0.99,-0.72,1.72
0.726,-0.14,0.35,0.39,0.54
0.736,-1.58,-0.25,0.13,1.61
0.746,-2.30,-0.55,-0.36,2.39
0.756,-1.29,-0.31,-0.80,1.55
0.766,-0.14,-0.01,0.24,0.28
0.777,0.80,-0.02,-0.01,0.80
0.787,1.09,0.01,0.33,1.14
0.797,0.29,-0.22,-0.26,0.44
0.807,-0.55,-0.50,-0.26,0.79
0.817,0.05,-0.13,0.05,0.15
0.827,0.21,-0.03,0.96,0.98
0.837,1.32,1.49,-0.08,1.99
0.847,0.95,0.85,-1.09,1.67
0.857,0.20,0.86,0.34,0.95
0.867,-1.11,-0.11,0.24,1.14
0.877,-2.14,-0.95,-0.19,2.35
0.887,-1.06,0.23,-1.02,1.49
0.897,-0.33,-1.16,-0.05,1.20
0.908,0.34,-0.28,0.76,0.88
0.918,0.89,0.51,0.10,1.03
0.928,0.42,0.05,-0.55,0.70
0.938,-0.48,-0.16,-0.49,0.70
0.948,0.26,0.04,0.86,0.90
0.958,1.62,0.54,0.55,1.80
0.968,0.82,0.50,-0.49,1.08
0.978,0.35,0.71,-0.17,0.81
0.988,-0.48,0.48,-0.17,0.71
0.998,-1.65,0.40,0.36,1.74
1.009,-1.99,-0.08,-0.70,2.11
1.019,-0.66,-0.32,-1.01,1.25
1.029,0.57,0.25,0.82,1.03
1.039,0.63,-1.32,0.08,1.47
1.049,0.41,-0.25,0.23,0.53
1.059,-0.03,0.03,-0.19,0.19
1.069,-0.33,-0.24,-0.81,0.91
1.079,-0.32,0.36,0.62,0.79
1.089,1.25,0.58,0.92,1.66
1.099,1.49,0.80,-0.81,1.87
1.109,0.62,0.73,-0.32,1.01
1.120,-0.85,-0.18,0.39,0.95
1.130,-2.34,-0.36,-0.31,2.39
1.140,-1.50,0.78,-0.18,1.70
1.150,-0.16,0.17,-0.70,0.74
1.160,0.57,0.12,0.21,0.62
1.170,1.35,0.36,0.13,1.40
1.180,0.23,-0.83,0.12,0.87
1.190,-1.11,-1.12,-0.13,1.59
1.200,-0.30,-0.69,-0.05,0.75
1.210,0.15,0.07,0.00,0.16
1.220,1.02,0.75,0.75,1.47
1.230,1.86,1.13,-0.17,2.18
1.241,0.84,1.17,-0.79,1.65
1.251,-0.67,0.43,0.37,0.88
1.261,-2.37,0.35,0.06,2.40
1.271,-2.34,-0.22,-0.41,2.39
1.281,-0.08,-0.44,-1.30,1.38
1.291,0.74,-0.15,1.05,1.29
1.301,1.09,-0.50,0.21,1.22
1.311,0.32,-0.73,-0.08,0.80
1.321,-0.38,-0.03,-0.42,0.56
1.331,-1.03,-0.85,-0.12,1.34
1.341,-0.41,0.15,0.12,0.45
1.351,0.66,0.05,0.66,0.94
1.361,2.47,1.37,0.13,2.82
1.372,1.35,0.90,-0.89,1.85
1.382,-0.27,0.37,0.31,0.55
1.392,-2.21,0.71,0.25,2.33
1.402,-3.06,-0.37,-0.85,3.20
1.412,-0.33,0.21,-0.49,0.63
1.422,0.30,-0.63,0.16,0.71
1.432,1.44,-0.33,0.40,1.53
1.442,0.63,-0.49,0.44,0.91
1.452,-0.27,-0.62,-0.82,1.07
1.462,-0.32,-0.72,-0.13,0.80
1.472,-0.62,-0.42,0.44,0.87
1.483,0.91,1.15,1.00,1.78
1.493,1.58,1.29,-0.79,2.19
1.503,0.69,1.00,-0.99,1.57
1.513,-0.30,1.13,0.86,1.45
1.523,-2.05,0.38,0.28,2.11
1.533,-1.46,-0.38,-1.55,2.16
1.543,-0.60,-0.44,0.17,0.76
1.553,-0.01,-0.57,0.19,0.61
1.563,0.82,-0.95,0.21,1.28
1.573,0.59,-0.24,0.25,0.68
1.583,-0.60,-0.57,-0.61,1.03
1.593,-0.32,-0.44,-0.15,0.57
1.604,0.84,0.57,0.81,1.30
1.613,1.26,0.79,0.47,1.56
1.624,1.32,1.41,-0.90,2.13
1.634,0.03,0.64,-0.19,0.67
1.644,-1.06,1.10,0.41,1.58
1.654,-2.41,-0.10,-0.08,2.41
1.664,-1.35,-0.38,-1.32,1.92
1.674,0.31,-0.05,0.13,0.34
1.684,0.64,-1.16,0.42,1.39
1.694,0.60,-0.40,0.61,0.94
1.704,-0.01,-0.32,-0.45,0.56
1.715,-0.24,-0.15,-0.70,0.75
1.725,-0.35,0.32,0.34,0.59
1.735,0.62,0.27,0.72,0.98
1.745,1.64,1.27,0.04,2.07
1.755,0.79,0.69,-0.81,1.32
1.765,-0.57,-0.30,-0.08,0.65
1.775,-0.92,0.00,0.40,1.01
1.785,-1.57,0.23,0.36,1.63
1.795,-1.10,0.03,-1.28,1.69
1.805,-0.13,0.36,-0.36,0.52
1.815,0.73,0.42,0.36,0.92
1.825,0.63,-0.53,0.31,0.88
1.835,-0.47,-1.12,0.03,1.22
1.845,-0.27,-0.61,-0.49,0.83
1.856,-0.09,-0.40,-0.05,0.41
1.866,0.77,0.41,1.05,1.37
1.876,1.90,1.22,0.15,2.26
1.886,0.80,1.13,-1.19,1.83
1.896,-0.10,0.91,0.09,0.92
1.906,-1.41,0.20,0.43,1.49
1.916,-2.51,-0.81,-0.26,2.65
1.926,-0.94,-0.15,-0.90,1.31
1.936,0.33,-0.05,0.06,0.34
1.946,0.70,-0.15,0.54,0.90
1.956,0.71,-0.28,-0.05,0.77
1.967,-0.14,-0.35,-0.21,0.43
1.977,-0.74,-0.38,-0.28,0.88
1.987,-0.60,-0.68,0.01,0.91
1.997,0.84,0.14,0.85,1.20
2.007,2.29,1.67,0.19,2.84
2.017,1.01,0.74,-0.85,1.52
2.027,-0.04,0.88,-0.04,0.88
2.037,-1.74,0.11,0.36,1.78
2.047,-2.55,-0.10,-0.54,2.61
2.057,-1.37,-0.45,-0.64,1.58
2.067,0.48,-0.37,-0.14,0.62
2.077,1.06,-0.42,0.65,1.31
2.088,0.56,-0.44,0.17,0.73
2.098,0.00,-0.16,-0.39,0.42
2.108,-0.36,-0.19,-0.25,0.47
2.118,-0.33,0.02,0.07,0.34
2.128,0.97,0.87,1.26,1.81
2.138,1.70,1.38,-0.84,2.34
2.148,0.65,0.71,-0.56,1.11
2.158,-0.18,0.75,0.14,0.78
2.168,-1.90,-0.59,1.23,2.35
2.178,-1.87,0.56,-1.68,2.57
2.188,-1.28,-1.67,-0.25,2.12
2.198,0.44,0.25,-0.09,0.51
2.209,0.51,-0.67,0.67,1.08
2.219,1.30,0.19,0.09,1.32
2.229,-0.57,-0.36,-0.47,0.82
2.239,-0.40,-0.06,-0.18,0.44
2.249,0.57,0.39,0.56,0.89
2.259,0.98,0.54,0.45,1.21
2.269,1.22,1.18,-0.42,1.75
2.279,0.48,0.48,-0.37,0.77
2.289,-0.58,0.40,0.18,0.73
2.299,-1.84,-0.33,0.20,1.88
2.309,-1.95,-0.22,-0.73,2.10
2.320,-0.46,-0.39,-0.66,0.89
2.330,0.34,-0.32,0.42,0.63
2.340,0.54,-0.13,0.46,0.73
2.350,0.65,0.05,-0.09,0.66
2.360,-0.11,0.15,-0.53,0.56
2.370,-0.82,-0.64,-0.17,1.05
2.380,0.40,-0.07,0.50,0.64
2.390,1.55,0.79,0.90,1.96
2.400,1.04,0.72,-0.87,1.54
2.410,0.68,0.89,-0.29,1.15
2.420,-0.58,0.46,0.46,0.87
2.430,-2.04,-0.15,-0.24,2.06
2.441,-1.82,-0.26,-0.55,1.92
2.451,-0.70,-0.43,-0.46,0.94
2.461,0.75,0.06,0.32,0.81
2.471,0.71,-0.34,0.32,0.85
2.481,0.10,-0.20,0.05,0.23
2.491,-0.15,-0.23,-0.50,0.57
2.501,-0.16,-0.33,-0.31,0.48
2.511,0.42,0.28,0.98,1.10
2.521,1.24,0.56,0.56,1.47
2.531,1.18,1.08,-1.09,1.94
2.541,0.26,0.73,-0.11,0.78
2.551,-1.13,0.07,0.24,1.15
2.562,-2.23,-0.62,0.13,2.31
2.572,-1.56,-0.02,-0.94,1.82
2.582,-0.04,0.03,-0.06,0.08
2.592,0.66,-0.20,0.07,0.69
2.602,0.79,-0.27,0.22,0.86
2.612,0.23,-0.15,0.05,0.28
2.622,-0.73,-0.31,-0.33,0.86
2.632,-0.57,-0.43,-0.19,0.74
2.642,0.64,0.31,0.79,1.06
2.652,2.12,1.50,0.37,2.63
2.663,1.23,0.47,-0.78,1.53
2.672,0.15,0.78,-0.35,0.87
2.683,-1.31,-0.40,0.56,1.48
2.693,-2.48,-0.37,-0.09,2.51
2.703,-1.89,-0.16,-0.84,2.07
2.713,0.22,-0.16,-0.56,0.62
2.723,0.80,0.39,0.59,1.07
2.733,0.89,-0.33,0.25,0.98
2.743,0.42,-0.06,0.01,0.43
2.753,-0.41,-0.13,-0.49,0.66
2.763,-0.82,-0.81,-0.22,1.17
2.773,0.30,0.53,1.28,1.42
2.783,1.91,1.23,-0.07,2.27
2.793,1.06,0.71,-0.97,1.60
2.804,0.28,0.79,0.09,0.84
2.813,-0.94,-0.37,0.21,1.03
2.824,-1.99,-0.38,-0.03,2.03
2.834,-1.77,-0.43,-0.57,1.91
2.844,-0.56,-0.41,-1.03,1.24
2.854,0.56,0.65,1.24,1.51
2.864,1.12,0.07,-0.14,1.14
2.874,0.33,-0.44,-0.28,0.61
2.884,-0.30,0.02,-0.01,0.30
2.894,0.25,-0.54,-0.22,0.63
2.904,0.43,0.18,0.87,0.99
2.914,1.07,1.06,0.33,1.54
2.925,0.86,0.91,-1.20,1.73
2.935,-0.04,1.03,0.06,1.03
2.945,-1.08,-0.40,0.44,1.23
2.955,-1.82,-0.98,-0.37,2.10
2.965,-1.02,0.10,-0.26,1.06
2.975,-0.42,-0.79,-0.68,1.12
2.985,0.01,-0.11,0.66,0.66
2.995,0.90,0.60,0.26,1.11
3.006,0.41,0.17,-0.73,0.85
3.015,-0.24,0.04,-0.05,0.24
3.026,0.04,-0.41,0.19,0.45
3.036,0.66,-0.17,0.60,0.91
3.046,1.31,0.69,0.13,1.48
3.056,0.41,0.38,-0.70,0.89
3.066,-0.10,0.53,-0.03,0.54
3.076,-0.80,0.84,0.42,1.23
3.086,-1.97,-0.02,-0.27,1.99
3.096,-1.19,0.22,-1.14,1.66
3.106,0.29,0.21,0.01,0.36
3.116,0.55,-0.69,0.47,1.00
3.126,0.35,-0.81,0.54,1.04
3.136,0.31,-0.19,-0.48,0.61
3.146,-0.51,-0.34,-0.39,0.73
3.157,-0.30,-0.04,0.11,0.32
3.167,0.66,0.30,0.77,1.06
3.177,1.64,1.13,0.13,2.00
3.187,1.00,0.67,-0.89,1.50
3.197,-0.49,0.47,0.14,0.70
3.207,-1.73,0.22,0.57,1.83
3.217,-2.23,-0.30,-1.04,2.48
3.227,-0.50,0.48,-0.28,0.75
3.237,0.39,-0.31,0.16,0.52
3.247,0.91,-0.30,0.07,0.96
3.257,0.74,-0.08,0.33,0.81
3.267,-0.71,-1.02,-0.48,1.33
3.277,-0.92,-0.51,-0.12,1.05
3.288,-0.27,-0.51,0.23,0.62
3.298,1.00,0.57,0.28,1.18
3.308,1.86,1.13,0.70,2.28
3.318,1.35,0.89,-1.06,1.94
3.328,0.17,0.89,-0.04,0.91
3.338,-1.81,0.25,0.51,1.90
3.348,-3.08,-0.11,-0.40,3.10
3.358,-1.27,-0.48,-1.24,1.84
3.368,0.64,-0.04,0.24,0.68
3.378,1.33,0.07,0.78,1.54
3.388,0.93,-0.75,0.03,1.20
3.399,-0.01,-0.10,-0.39,0.41
3.409,-1.13,-1.05,-0.56,1.64
3.419,-0.72,-0.08,0.58,0.92
3.429,0.41,0.43,0.39,0.71
3.439,2.10,1.23,0.23,2.45
3.449,1.39,1.10,-1.01,2.04
3.459,0.32,0.28,0.22,0.48
3.469,-1.15,0.72,0.84,1.60
3.479,-3.52,-0.39,-0.93,3.66
3.489,-1.18,-0.57,-1.02,1.66
3.499,0.41,0.28,0.21,0.54
3.509,1.08,-0.79,0.56,1.45
3.519,0.99,-0.21,0.52,1.14
3.530,-0.09,-0.41,-0.52,0.67
3.540,-0.23,-0.65,-0.92,1.15
3.550,-1.03,-0.62,0.56,1.32
3.560,0.88,0.57,1.43,1.78
3.570,1.71,1.09,-0.69,2.14
3.580,0.92,0.90,-1.07,1.67
3.590,0.10,1.35,0.60,1.49
3.600,-2.44,0.38,0.32,2.49
3.610,-1.67,0.22,-0.91,1.91
3.620,-0.83,-0.62,-0.65,1.22
3.631,0.14,-0.27,0.43,0.53
3.641,0.99,-0.91,0.35,1.39
3.651,0.54,-0.35,0.24,0.69
3.661,-0.28,-0.15,-0.32,0.45
3.671,-0.40,-0.78,-0.61,1.06
3.681,0.17,0.35,0.57,0.69
3.691,1.20,0.82,0.99,1.76
3.701,1.22,0.85,-0.78,1.68
3.711,0.68,0.83,-0.61,1.23
3.721,-0.42,0.78,0.73,1.15
3.731,-2.24,0.21,-0.22,2.26
3.741,-2.01,-0.42,-0.93,2.25
3.751,-0.00,0.30,-0.33,0.45
3.761,0.53,-0.66,0.34,0.92
3.772,0.66,-0.68,0.67,1.16
3.782,0.54,-0.08,-0.23,0.59
3.792,-0.59,-0.50,-0.57,0.96
3.802,-0.48,-0.02,-0.04,0.48
3.812,0.28,-0.18,0.53,0.63
3.822,1.24,0.99,0.49,1.66
3.832,1.64,1.09,-0.40,2.01
3.842,0.02,0.46,-0.71,0.85
3.852,-1.14,0.04,0.65,1.31
3.862,-1.57,-0.10,-0.32,1.60
3.873,-1.68,0.19,-0.28,1.72
3.883,-0.30,0.03,-0.42,0.52
3.893,0.62,0.06,-0.14,0.64
3.903,0.87,0.04,0.30,0.92
3.913,-0.03,-1.02,0.19,1.03
3.923,-0.86,-0.77,-0.38,1.22
3.933,-0.36,-0.96,0.03,1.02
3.943,0.76,0.53,0.26,0.97
3.953,1.43,0.81,0.94,1.89
3.963,1.88,1.41,-0.80,2.48
3.973,0.25,0.85,-0.68,1.11
3.983,-1.22,0.37,0.63,1.42
3.993,-2.56,-0.48,0.02,2.60
4.004,-1.91,-0.66,-1.17,2.34
4.014,0.27,0.10,0.36,0.46
4.024,0.92,-0.22,0.01,0.95
4.034,0.71,-0.32,0.20,0.80
4.044,0.38,0.18,-0.03,0.42
4.054,-0.68,-0.79,-0.47,1.14
4.064,-1.07,-0.40,-0.07,1.14
4.074,0.81,0.25,0.98,1.29
4.084,2.31,1.37,0.13,2.69
4.094,1.10,0.84,-0.87,1.64
4.104,-0.01,0.63,-0.08,0.63
4.114,-1.33,0.29,0.47,1.44
4.125,-2.26,0.07,-0.13,2.26
4.135,-1.86,-0.70,-1.25,2.35
4.145,0.06,-0.01,-0.16,0.17
4.155,1.23,0.04,0.90,1.52
4.165,0.46,-1.01,-0.43,1.19
4.175,0.59,0.33,0.86,1.10
4.185,0.03,-0.29,-1.06,1.10
4.195,-1.09,-1.06,-0.19,1.53
4.205,0.83,1.23,1.23,1.93
4.215,1.34,0.48,0.00,1.42
4.225,1.04,1.32,-1.00,1.96
4.235,0.14,0.66,0.54,0.87
4.246,-1.46,-0.01,-0.29,1.49
4.256,-2.30,0.00,-0.08,2.30
4.266,-1.31,-0.42,-0.90,1.64
4.276,0.10,-0.48,0.23,0.54
4.286,0.68,-0.20,0.30,0.77
4.296,0.96,-0.52,0.05,1.09
4.306,0.11,0.20,-0.02,0.23
4.316,-0.65,-0.46,-0.35,0.87
4.326,0.03,0.32,-0.19,0.37
4.336,1.06,0.76,1.43,1.93
4.346,1.26,0.83,-0.83,1.72
4.357,0.57,0.60,-0.43,0.93
4.367,0.09,0.79,0.60,1.00
4.377,-1.55,-0.79,-0.33,1.77
4.387,-1.97,0.02,-0.08,1.97
4.397,-1.01,-0.09,-0.91,1.36
4.407,0.10,-0.40,-0.04,0.41
4.417,0.48,0.41,0.82,1.03
4.427,0.64,-0.58,-0.32,0.92
4.437,0.34,0.15,-0.33,0.50
4.447,-0.41,-0.43,0.16,0.61
4.457,-0.35,-0.53,-0.08,0.64
4.467,0.76,0.55,0.66,1.15
4.477,1.51,0.87,-0.01,1.74
4.488,0.51,0.56,-0.85,1.13
4.498,0.02,0.76,0.71,1.04
4.508,-1.35,-0.22,-0.40,1.42
4.518,-2.10,-0.01,0.05,2.10
4.528,-1.09,-0.17,-0.96,1.46
4.538,-0.20,-0.78,0.01,0.81
4.548,0.93,0.25,0.47,1.07
4.558,0.74,-0.58,0.29,0.99
4.568,-0.29,0.06,-0.41,0.50
4.578,-0.44,-0.46,-0.42,0.76
4.588,0.55,0.27,0.11,0.62
4.599,0.94,0.58,1.40,1.79
4.609,1.47,0.63,-0.70,1.75
4.619,0.52,0.86,-0.81,1.29
4.629,-0.65,0.41,0.63,0.99
4.639,-2.01,-0.35,-0.10,2.05
4.649,-2.18,-0.20,-0.51,2.25
4.659,-0.49,0.20,-0.63,0.82
4.669,0.59,-0.44,-0.07,0.74
4.679,1.07,-0.23,0.78,1.35
4.689,0.51,-0.11,0.15,0.54
4.699,-0.67,-0.58,-0.76,1.17
4.709,-0.86,0.05,0.03,0.86
4.720,0.39,0.19,0.43,0.61
4.730,1.68,1.15,0.63,2.13
4.740,1.41,0.94,-0.69,1.83
4.750,0.44,0.23,-0.46,0.68
4.760,-0.32,0.34,0.47,0.66
4.770,-2.17,-0.95,0.49,2.42
4.780,-2.78,-0.60,-1.24,3.11
4.790,-0.24,0.56,-0.36,0.71
4.800,0.80,0.35,0.17,0.89
4.810,0.69,-0.38,0.34,0.86
4.820,1.05,0.49,0.35,1.21
4.831,-0.05,-0.46,-0.64,0.79
4.841,-0.83,-0.47,-0.39,1.03
4.851,-0.07,-0.24,1.26,1.28
4.861,1.60,0.85,0.12,1.82
4.871,1.28,1.22,-0.70,1.90
4.881,0.20,0.55,-0.28,0.65
4.891,-0.99,-0.12,0.25,1.03
4.901,-1.78,-0.23,0.11,1.80
4.911,-1.65,-0.36,-0.44,1.74
4.921,-0.50,-0.25,-0.85,1.02
4.931,0.44,0.45,0.68,0.93
4.941,0.72,-0.02,0.20,0.75
4.951,0.45,0.09,-0.44,0.63
4.962,-0.26,-0.39,-0.02,0.48
4.972,-0.38,-0.71,-0.16,0.82
4.982,0.52,-0.20,0.77,0.95
4.992,1.33,0.70,0.50,1.59
5.002,0.80,1.05,-0.97,1.64
5.012,0.43,1.07,-0.08,1.16
5.022,-0.14,0.57,0.10,0.59
5.032,-2.19,-1.21,0.23,2.52
5.042,-1.32,0.23,-0.49,1.42
5.052,-0.58,-0.60,-0.79,1.14
5.062,-0.39,-0.23,0.58,0.74
5.073,1.09,0.43,0.37,1.23
5.083,0.50,-0.04,-0.58,0.77
5.093,-0.02,0.34,0.14,0.37
5.103,-0.27,-0.96,-0.42,1.08
5.113,-0.02,-0.18,0.59,0.62
5.123,1.35,0.36,0.78,1.60
5.133,0.72,0.28,-0.78,1.09
5.143,0.02,0.96,-0.09,0.97
5.153,-0.31,0.65,-0.20,0.75
5.163,-1.74,0.57,0.31,1.86
5.173,-1.74,-0.16,-0.59,1.85
5.184,-0.23,-0.33,-0.98,1.06
5.194,0.62,0.01,0.74,0.96
5.204,0.53,-1.06,0.37,1.24
5.214,-0.03,-0.44,-0.02,0.44
5.224,-0.43,-0.14,-0.49,0.67
5.234,0.07,0.14,-0.31,0.35
5.244,0.15,-0.05,0.70,0.72
5.254,1.51,0.50,0.67,1.72
5.264,1.47,0.96,-0.86,1.96
5.274,-0.10,0.32,-0.05,0.34
5.284,-0.97,0.71,0.51,1.30
5.294,-2.68,-0.30,-0.59,2.76
5.304,-1.31,0.74,-0.78,1.70
5.315,0.35,-0.08,0.06,0.36
5.325,0.76,-0.46,0.24,0.92
5.335,1.19,-0.14,0.54,1.32
5.345,-0.35,-1.02,-0.44,1.16
5.355,-1.07,-0.32,-0.21,1.13
5.365,-0.44,-0.52,-0.01,0.68
5.375,0.55,0.51,0.34,0.82
5.385,1.81,1.32,0.79,2.37
5.395,1.51,0.68,-0.93,1.90
5.405,0.27,0.90,-0.38,1.02
5.415,-1.44,0.18,0.58,1.56
5.425,-3.22,-0.39,-0.11,3.25
5.435,-1.40,0.06,-1.01,1.72
5.446,0.94,0.08,-0.19,0.97
5.456,1.02,-0.41,0.59,1.25
5.466,0.88,-0.54,0.40,1.11
5.476,0.14,-0.50,-0.36,0.63
5.486,-1.21,-0.92,-0.63,1.65
5.496,-0.76,-0.37,0.47,0.97
5.506,0.54,0.21,0.33,0.67
5.516,1.90,1.38,0.49,2.40
5.526,1.62,1.51,-0.78,2.35
5.537,-0.02,0.29,-0.47,0.56
5.546,-0.99,1.07,0.90,1.71
5.557,-2.84,-0.01,-0.34,2.86
5.567,-1.67,-1.06,-1.42,2.44
5.577,0.31,0.04,0.53,0.62
5.587,0.75,-0.59,0.28,1.00
5.597,1.57,-0.30,0.65,1.73
5.607,2.15,1.88,0.71,2.94
5.617,0.97,1.93,-0.58,2.24
5.627,1.36,1.95,0.06,2.38
5.637,0.81,0.78,-0.25,1.15
5.647,-0.54,0.15,-0.05,0.56
5.657,-0.38,-1.13,0.05,1.20
5.667,-1.42,-1.87,-0.47,2.39
5.678,-1.91,-0.39,0.61,2.05
5.688,-2.57,0.71,0.59,2.73
5.698,-2.29,0.82,-2.66,3.60
5.708,-0.37,2.12,-1.03,2.39
5.718,0.35,1.24,1.19,1.75
5.728,-0.15,-0.28,0.48,0.58
5.738,0.68,-0.53,0.63,1.07
5.748,0.42,-0.62,-1.01,1.26
5.758,0.03,-1.24,-0.60,1.37
5.768,-0.16,-0.65,0.52,0.85
5.778,-0.72,-0.82,0.41,1.17
5.788,-0.70,-0.73,-0.38,1.08
5.799,-0.13,-0.28,-0.52,0.61
5.809,0.24,-0.24,-0.47,0.58
5.819,0.78,0.38,1.11,1.41
5.829,0.50,0.24,-0.09,0.56
5.839,-0.23,-0.39,-0.69,0.82
5.849,-0.12,-0.05,0.08,0.16
5.859,-0.51,-0.71,-0.12,0.89
5.869,-0.92,-0.79,-0.13,1.22
5.879,0.04,-0.68,0.05,0.68
5.889,-0.00,-1.14,-0.41,1.21
5.899,-0.27,-1.02,-0.03,1.06
5.909,0.07,-0.81,-0.03,0.82
5.920,-0.61,-1.20,-0.25,1.37
5.929,-0.94,-1.01,-0.31,1.42
5.940,0.05,-0.44,0.16,0.47
5.950,4.28,2.65,4.55,6.79
5.960,5.03,3.04,-2.94,6.58
5.970,0.20,0.44,-3.17,3.21
5.980,0.82,2.20,3.24,4.00
5.990,-1.76,-1.35,-0.44,2.26
6.000,-2.95,-1.72,0.27,3.42
6.010,-0.92,-2.06,-0.65,2.34
6.020,0.91,-1.11,-0.76,1.63
6.031,1.35,1.99,3.15,3.97
6.041,-1.30,3.64,-1.05,4.01
6.051,-0.83,0.16,-4.17,4.25
6.061,-0.68,2.51,1.10,2.82
6.071,-0.44,1.76,1.87,2.61
6.081,-0.55,-0.93,-0.63,1.25
6.091,-0.56,0.58,-0.64,1.03
6.101,-0.87,-2.11,-1.14,2.55
6.111,-0.10,-1.72,0.86,1.92
6.121,0.51,-0.78,1.25,1.56
6.131,0.12,-0.81,-0.69,1.07
6.142,-0.33,0.43,-0.47,0.72
6.152,0.81,1.10,0.30,1.40
6.162,1.72,1.85,0.33,2.54
6.172,0.84,1.14,-0.36,1.46
6.182,0.22,0.57,-0.06,0.61
6.192,-0.93,0.30,0.25,1.00
6.202,-2.55,-0.89,-0.60,2.77
6.212,-1.78,-0.59,-0.41,1.92
6.222,-0.21,-0.37,-0.10,0.44
6.232,0.91,-0.63,0.23,1.13
6.242,1.04,0.16,0.42,1.14
6.252,0.46,-0.11,-0.23,0.52
6.262,-0.21,0.31,-0.61,0.72
6.273,-0.99,-0.26,0.33,1.08
6.283,0.26,0.42,0.62,0.79
6.293,1.52,1.12,0.03,1.89
6.303,1.49,0.98,-0.58,1.88
6.313,0.48,0.16,-0.11,0.52
6.323,-1.00,-0.62,0.52,1.29
6.333,-2.09,-0.03,-0.09,2.09
6.343,-2.27,-0.52,-0.96,2.52
6.353,-0.50,0.01,-0.22,0.55
6.363,1.07,0.78,0.53,1.43
6.373,1.17,0.16,-0.16,1.19
6.383,0.60,0.17,0.44,0.76
6.394,-0.48,-0.54,-0.73,1.02
6.404,-0.77,-1.13,-0.23,1.39
6.414,0.05,-0.41,0.70,0.81
6.424,1.01,0.03,0.85,1.32
6.434,1.37,1.18,-0.72,1.94
6.444,0.59,0.93,-0.48,1.20
6.454,-0.69,1.24,0.11,1.42
6.464,-2.34,-0.17,0.23,2.35
6.474,-1.83,-0.01,-0.86,2.03
6.484,-0.07,-0.51,-0.57,0.77
6.494,0.63,-0.73,0.75,1.22
6.505,0.70,-0.35,0.28,0.84
6.515,0.10,-0.80,-0.19,0.83
6.525,-0.11,0.36,-0.35,0.51
6.535,-0.69,-0.47,-0.18,0.86
6.545,0.35,0.26,0.69,0.82
6.555,1.92,1.27,0.55,2.36
6.565,1.34,0.38,0.55,1.50
6.575,0.07,1.37,3.02,3.32
6.585,-2.54,-0.77,-2.21,3.45
6.595,-1.74,2.00,0.33,2.67
6.605,-1.19,-1.04,-2.02,2.57
6.615,0.32,0.29,-1.17,1.25
6.626,-0.29,-2.20,2.47,3.32
6.636,0.00,1.72,-0.53,1.80
6.646,-0.12,-0.12,0.35,0.39
6.656,-0.04,0.11,-1.61,1.61
6.666,0.47,0.22,0.42,0.67
6.676,1.55,0.41,1.53,2.22
6.686,0.84,-0.36,-0.46,1.02
6.696,0.25,0.22,-1.18,1.23
6.706,-0.06,-0.12,0.80,0.81
6.716,-0.87,-0.14,-0.50,1.01
6.726,-0.90,0.09,-0.57,1.07
6.736,-0.28,-0.80,-1.39,1.63
6.746,-0.21,-0.77,-0.77,1.11
6.757,-0.05,-1.32,0.00,1.32
6.767,-0.15,0.12,2.21,2.22
6.777,0.55,1.41,-2.29,2.74
6.787,-1.46,2.27,-3.22,4.20
6.797,2.06,5.13,-0.42,5.54
6.807,1.80,4.32,0.51,4.71
6.817,0.12,3.56,-1.52,3.87
6.827,0.22,4.53,-2.46,5.16
6.837,-0.75,-2.92,0.17,3.02
6.847,-3.32,-6.89,11.12,13.50
6.858,0.49,0.52,-9.82,9.85
6.868,-1.26,-3.85,5.09,6.50
6.878,-0.54,-2.42,6.92,7.35
6.888,-0.59,-1.43,-4.28,4.55
6.898,-0.36,-0.72,-4.14,4.22
6.908,0.64,-0.35,-2.14,2.26
6.918,0.22,-1.40,1.71,2.22
6.928,1.22,-0.36,2.60,2.89
6.938,2.27,0.34,2.15,3.14
6.948,1.74,1.01,-0.49,2.07
6.958,0.48,1.35,-3.25,3.55
6.968,-0.93,0.65,-0.86,1.42
6.979,-1.90,0.04,1.31,2.30
6.989,-1.92,-0.10,0.48,1.98
6.999,-0.82,-0.44,0.65,1.14
7.009,0.39,0.10,-1.71,1.76
7.019,0.65,-0.54,-0.17,0.86
7.029,1.03,0.49,0.25,1.17
7.039,-0.15,-0.76,0.69,1.04
7.049,-0.71,-0.53,-0.12,0.89
7.059,-0.06,-0.18,-0.25,0.32
7.069,0.29,-0.48,0.18,0.59
7.079,1.15,1.47,0.36,1.90
7.089,1.01,0.99,-0.28,1.44
7.100,0.22,0.87,-0.49,1.02
7.109,-0.85,0.26,0.54,1.04
7.120,-2.30,-0.86,-0.62,2.54
7.130,-1.31,-0.29,-0.35,1.39
7.140,0.02,-0.33,-0.18,0.38
7.150,0.14,-0.52,0.67,0.85
7.160,0.93,0.09,-0.33,0.99
7.170,0.54,0.21,0.05,0.58
7.180,-0.53,-0.50,-0.64,0.97
7.190,-0.31,-0.45,0.66,0.86
7.200,1.33,0.51,0.47,1.50
7.210,1.20,0.62,0.14,1.36
7.220,0.46,1.07,-0.71,1.36
7.231,-0.16,0.78,0.06,0.80
7.241,-1.66,0.51,-0.16,1.74
7.251,-2.36,-0.23,-0.06,2.37
7.261,-0.57,-0.45,-0.95,1.19
7.271,0.64,-0.19,0.47,0.81
7.281,0.57,-1.03,-0.01,1.17
7.291,0.75,-0.02,0.53,0.92
7.301,-0.25,-0.04,-0.06,0.26
7.311,-0.76,-0.05,-0.88,1.17
7.321,-0.21,0.29,0.36,0.51
7.331,1.34,0.42,0.89,1.66
7.342,1.71,0.71,-0.63,1.96
7.352,1.04,0.52,-0.20,1.18
7.362,-0.80,0.18,0.72,1.10
7.372,-2.75,0.10,-0.68,2.83
7.382,-2.04,0.37,-0.35,2.10
7.392,-0.26,0.16,-1.00,1.05
7.402,0.48,-0.44,0.81,1.04
7.412,1.61,-0.13,-0.07,1.61
7.422,0.46,-0.88,0.29,1.03
7.432,-0.66,-0.51,-0.07,0.84
7.442,-0.76,-0.92,-0.28,1.22
7.452,-0.10,0.50,-0.01,0.51
7.462,1.20,1.38,1.16,2.17
7.473,1.74,0.79,-0.81,2.08
7.483,0.83,1.03,-0.52,1.42
7.493,-0.41,0.59,0.41,0.83
7.503,-2.95,-0.43,0.09,2.99
7.513,-2.27,-0.31,-0.80,2.42
7.523,-0.23,-0.36,-0.35,0.56
7.533,0.99,0.38,0.29,1.10
7.543,1.36,-0.52,0.33,1.50
7.553,0.56,-0.24,-0.03,0.61
7.563,-0.86,-0.69,-0.33,1.15
7.573,-1.03,-0.77,-0.17,1.30
7.583,-0.55,-0.07,0.17,0.58
7.594,1.34,0.41,0.89,1.65
7.604,2.89,1.91,-0.19,3.47
7.614,0.89,0.95,-0.81,1.53
7.624,-0.67,0.63,0.16,0.94
7.634,-2.59,0.63,0.12,2.67
7.644,-2.93,-1.00,-0.89,3.22
7.654,-0.37,-0.34,-0.15,0.52
7.664,0.87,-0.47,0.18,1.01
7.674,1.50,-0.58,0.50,1.68
7.684,0.68,0.06,0.09,0.69
7.694,-0.31,-0.53,-0.56,0.83
7.704,-0.80,-0.47,-0.42,1.02
7.715,-0.95,-0.31,0.56,1.14
7.725,1.07,0.95,0.79,1.64
7.735,2.07,1.31,-0.33,2.47
7.745,0.67,0.91,-1.06,1.55
7.755,-0.09,1.11,0.79,1.37
7.765,-2.59,-0.04,-0.48,2.63
7.775,-2.31,-0.69,-0.64,2.50
7.785,-0.30,-0.17,0.26,0.43
7.795,-0.03,-1.25,-0.24,1.27
7.805,1.22,-0.38,0.04,1.27
7.816,0.81,-0.42,0.48,1.03
7.826,-0.17,-0.48,-0.50,0.71
7.836,-0.45,0.12,0.16,0.49
7.846,-0.15,0.30,0.08,0.35
7.856,1.18,1.03,0.52,1.65
7.866,1.54,1.23,-0.45,2.02
7.876,0.44,0.29,-0.66,0.84
7.886,-0.60,0.61,0.82,1.18
7.896,-2.49,-0.12,-0.11,2.50
7.906,-2.12,-0.57,-1.24,2.52
7.916,0.05,-0.04,0.08,0.10
7.926,0.68,-0.72,-0.00,0.99
7.937,1.04,-0.21,0.72,1.28
7.946,0.41,0.08,0.16,0.45
7.957,-0.47,-0.10,-0.83,0.96
7.967,-0.62,0.16,0.05,0.64
7.977,0.67,0.39,0.30,0.83
7.987,1.70,0.66,0.48,1.89
7.997,1.25,0.57,-0.57,1.49
8.007,-0.23,-0.27,0.14,0.39
8.017,-1.58,0.23,0.01,1.60
8.027,-2.21,0.54,-0.13,2.28
8.037,-1.31,-0.09,-1.02,1.66
8.047,-0.03,0.25,-0.12,0.28
8.057,1.17,0.05,0.34,1.22
8.068,1.17,-0.69,0.20,1.37
8.078,-0.37,-0.80,0.30,0.93
8.088,-0.71,-0.85,-0.38,1.17
8.098,-0.13,0.21,-0.31,0.39
8.108,0.45,0.33,0.90,1.06
8.118,1.95,1.34,-0.14,2.37
8.128,1.13,0.87,-0.65,1.57
8.138,-0.08,0.48,0.03,0.49
8.148,-1.82,-0.37,0.26,1.88
8.158,-2.78,-0.68,-0.34,2.88
8.168,-0.90,0.33,-0.56,1.11
8.179,0.41,0.04,-0.16,0.44
8.189,1.01,0.28,0.27,1.08
8.199,1.02,-0.13,-0.04,1.03
8.209,-0.03,-0.51,-0.01,0.51
8.219,-0.96,-0.92,-0.18,1.34
8.229,-0.70,-0.96,-0.14,1.20
8.239,1.65,1.29,1.34,2.49
8.249,2.05,1.27,-0.26,2.43
8.259,0.35,0.78,-1.26,1.52
8.269,0.21,1.37,0.55,1.49
8.279,-2.28,-0.42,-0.00,2.32
8.289,-2.73,-0.80,-0.58,2.90
8.299,-0.51,-0.01,-0.09,0.52
8.310,0.41,-0.56,-0.33,0.77
8.320,1.34,-0.02,0.52,1.43
8.330,0.90,0.08,0.35,0.97
8.340,-0.47,-0.33,-0.65,0.87
8.350,-0.88,-0.34,-0.25,0.97
8.360,-0.69,-0.46,0.10,0.84
8.370,0.81,0.30,1.02,1.33
8.380,2.41,1.18,-0.09,2.69
8.390,0.86,0.99,-0.98,1.63
8.400,-0.17,0.36,0.42,0.58
8.410,-2.01,0.03,-0.21,2.02
8.421,-2.86,-0.19,-0.23,2.87
8.431,-1.12,-0.29,-0.42,1.23
8.441,0.32,-0.28,-0.25,0.49
8.451,1.44,-0.27,0.19,1.48
8.461,1.62,0.08,0.47,1.69
8.471,-0.37,-0.35,-0.08,0.52
8.481,-0.78,-0.61,-0.32,1.04
8.491,-0.48,-0.03,-0.14,0.50
8.501,0.78,0.57,0.84,1.28
8.511,1.56,1.00,-0.06,1.86
8.521,0.97,0.57,-0.83,1.39
8.531,-0.03,0.65,0.46,0.80
8.542,-1.88,-0.09,-0.05,1.88
8.552,-2.61,-0.43,-0.46,2.68
8.562,-0.79,-0.04,-0.54,0.96
8.572,0.17,-0.62,-0.10,0.65
8.582,0.96,-0.06,0.49,1.08
8.592,1.01,-0.15,0.31,1.06
8.602,-0.08,-0.22,-0.29,0.37
8.612,-0.79,-0.13,-0.41,0.90
8.622,-0.07,-0.14,0.24,0.29
8.632,1.56,0.74,0.68,1.86
8.642,1.46,0.66,-0.46,1.66
8.652,0.45,0.23,0.03,0.51
8.663,-0.89,0.57,-0.07,1.06
8.673,-2.07,0.26,0.08,2.09
8.683,-2.21,-0.23,-0.84,2.38
8.693,-0.37,-0.03,-0.64,0.74
8.703,0.97,-0.17,0.51,1.11
8.713,1.06,-0.33,0.18,1.12
8.723,0.30,-0.45,0.43,0.70
8.733,-0.49,-0.26,-0.41,0.69
8.743,-0.69,-0.16,-0.72,1.01
8.753,0.32,0.25,0.89,0.98
8.763,1.51,0.65,0.40,1.69
8.773,1.42,0.84,-0.69,1.79
8.784,0.49,0.72,0.03,0.87
8.794,-1.40,-0.13,-0.05,1.41
8.804,-2.56,-0.36,-0.03,2.59
8.814,-1.64,0.28,-0.55,1.75
8.824,-0.19,-0.08,-0.53,0.56
8.834,1.00,0.05,0.38,1.07
8.844,1.17,-0.29,0.13,1.21
8.854,0.20,-0.42,0.23,0.52
8.864,-0.80,-0.77,-0.43,1.19
8.874,-0.78,-0.52,-0.15,0.95
8.884,0.92,0.85,0.87,1.52
8.895,2.05,1.15,0.19,2.36
8.904,1.07,1.12,-0.84,1.76
8.915,0.21,0.96,0.02,0.98
8.925,-1.59,-0.36,-0.21,1.64
8.935,-2.85,-0.91,0.21,3.00
8.945,-1.12,-0.13,-0.42,1.21
8.955,0.47,-0.04,-0.49,0.68
8.965,0.97,0.46,0.52,1.19
8.975,0.74,-0.15,-0.47,0.89
8.985,0.12,-0.17,0.64,0.68
8.995,-0.70,-0.11,-0.75,1.03
9.005,-1.32,-2.04,-0.09,2.43
9.016,0.28,0.54,0.75,0.97
9.026,2.10,0.95,0.78,2.44
9.036,1.66,1.52,-1.23,2.57
9.046,0.51,0.86,0.04,1.00
9.056,-1.30,-0.03,-0.23,1.32
9.066,-2.46,-0.34,-0.00,2.49
9.076,-1.71,-0.80,-0.02,1.88
9.086,-0.28,-0.26,-0.81,0.89
9.096,0.46,-0.15,0.51,0.70
9.106,1.61,0.75,-0.19,1.79
9.116,0.20,-0.53,0.32,0.65
9.126,-0.66,-0.27,-0.33,0.79
9.137,-0.18,-0.38,-0.34,0.54
9.146,0.12,-0.45,0.68,0.82
9.157,1.32,0.97,0.69,1.78
9.167,1.23,1.06,-0.82,1.82
9.177,0.25,0.99,-0.49,1.13
9.187,-0.80,0.09,0.26,0.85
9.197,-2.10,-0.81,0.09,2.25
9.207,-1.40,0.05,-0.24,1.42
9.217,-0.13,-0.67,-1.07,1.27
9.227,0.00,-0.15,0.66,0.67
9.237,0.67,0.42,0.40,0.88
9.247,0.51,-0.19,-0.60,0.81
9.258,-0.24,0.09,0.03,0.25
9.268,-0.21,-0.59,0.08,0.63
9.278,0.97,0.13,0.35,1.04
9.288,1.54,0.68,0.51,1.76
9.298,0.37,0.23,-0.72,0.84
9.308,-0.26,0.86,-0.06,0.90
9.318,-1.12,0.88,0.31,1.46
9.328,-2.45,-0.28,-0.65,2.55
9.338,-0.87,0.05,-0.69,1.11
9.348,0.63,-0.38,-0.00,0.73
9.358,0.74,-0.68,0.41,1.08
9.368,0.29,-0.52,0.62,0.86
9.379,-0.20,-0.28,-0.46,0.57
9.388,-0.46,0.19,-0.73,0.89
9.399,-0.14,0.15,0.35,0.41
9.409,0.93,0.28,0.69,1.19
9.419,1.86,0.97,0.04,2.10
9.429,0.87,0.45,-0.72,1.22
9.439,-0.62,0.24,0.22,0.70
9.449,-2.11,0.00,0.16,2.12
9.459,-2.29,0.21,-0.65,2.39
9.469,-0.54,0.70,-0.56,1.05
9.479,0.49,-0.15,0.13,0.53
9.489,1.17,-0.25,0.11,1.20
9.500,0.57,-0.64,0.36,0.93
9.510,-0.37,-0.95,-0.19,1.03
9.520,-0.92,-1.10,-0.25,1.46
9.530,-0.00,-0.01,0.11,0.11
9.540,1.25,1.28,0.75,1.94
9.550,1.80,1.05,0.08,2.08
9.560,0.74,1.09,-1.29,1.84
9.570,-0.20,0.56,0.42,0.72
9.580,-2.12,-0.04,0.36,2.15
9.590,-2.69,-0.49,-0.54,2.78
9.600,-0.40,-0.46,-0.71,0.94
9.611,0.47,0.16,0.17,0.53
9.621,1.04,-0.50,0.20,1.17
9.631,0.97,-0.14,0.41,1.06
9.641,-0.42,-0.15,-0.21,0.49
9.651,-1.16,-0.99,-0.75,1.70
9.661,-0.55,0.18,0.39,0.70
9.671,0.47,-0.03,0.50,0.68
9.681,1.96,1.04,0.15,2.22
9.691,1.77,1.22,-0.28,2.17
9.701,0.17,0.37,-0.52,0.66
9.711,-1.88,0.51,0.51,2.01
9.721,-3.27,-0.09,-0.53,3.31
9.732,-1.10,-0.47,-0.76,1.42
9.742,0.42,-0.18,0.20,0.49
9.752,1.00,-0.86,0.03,1.32
9.762,1.33,-0.02,0.54,1.44
9.772,-0.02,-0.56,0.06,0.56
9.782,-0.48,-0.46,-0.95,1.16
9.792,-1.05,-0.64,0.25,1.26
9.802,0.50,0.72,0.93,1.28
9.812,1.59,1.02,0.04,1.88
9.822,1.27,0.79,-0.97,1.78
9.833,0.66,1.07,0.07,1.26
9.842,-2.49,0.06,0.43,2.52
9.853,-1.95,0.54,-0.65,2.12
9.863,-1.34,-0.82,-0.47,1.64
9.873,0.05,0.16,0.04,0.18
9.883,0.90,-0.93,-0.15,1.31
9.893,1.01,-0.56,0.61,1.31
9.903,0.03,-0.12,0.19,0.22
9.913,-0.51,-0.91,-0.73,1.28
9.923,0.17,0.37,0.14,0.43
9.933,1.00,0.73,0.84,1.50
9.943,1.05,0.69,-0.57,1.38
9.953,0.33,0.86,-0.19,0.94
9.963,0.02,1.25,0.36,1.30
9.974,-2.27,-0.15,-0.44,2.32
9.984,-1.80,0.13,-0.57,1.89
9.994,-0.15,-0.20,-0.50,0.56
10.004,0.51,-1.02,0.04,1.14
10.014,0.76,-0.32,1.24,1.49
10.024,0.10,-0.66,-0.37,0.76
10.034,-0.27,0.11,-0.61,0.68
10.044,-0.37,0.14,-0.14,0.42
10.054,0.29,-0.20,0.47,0.59
10.064,1.60,1.36,0.81,2.25
10.074,1.29,0.71,-0.81,1.68
10.084,-0.17,0.13,-0.45,0.50
10.094,-1.08,0.03,0.44,1.17
10.105,-2.19,-0.30,-0.14,2.21
10.115,-1.36,0.31,-0.37,1.44
10.125,-0.10,0.11,-0.50,0.52
10.135,0.61,0.18,-0.07,0.64
10.145,0.89,-0.24,0.27,0.97
10.155,0.07,-0.88,0.15,0.89
10.165,-0.68,-1.03,-0.12,1.24
10.175,0.05,-0.04,-0.10,0.12
10.185,0.74,0.46,0.58,1.04
10.195,1.29,1.11,0.16,1.70
10.206,1.10,1.17,-0.79,1.79
10.216,0.27,0.85,-0.03,0.89
10.226,-1.35,-0.19,0.35,1.40
10.236,-2.22,-0.79,-0.28,2.37
10.246,-1.41,-0.07,-0.61,1.53
10.256,0.04,-0.30,-0.17,0.35
10.266,0.73,0.14,0.17,0.76
10.276,0.69,-0.11,0.21,0.73
10.286,0.29,-0.13,-0.22,0.38
10.296,-0.54,-0.32,-0.25,0.68
10.306,-0.98,-0.77,0.02,1.25
10.317,0.75,0.05,0.56,0.94
10.327,1.62,0.96,0.38,1.92
10.337,1.29,0.94,-0.58,1.70
10.347,0.42,0.64,-0.30,0.82
10.357,-1.30,0.39,0.29,1.38
10.367,-2.63,-0.16,-0.32,2.65
10.377,-1.78,-0.36,-0.77,1.98
10.387,0.03,-0.18,-0.08,0.20
10.397,1.13,-0.14,0.15,1.15
10.407,1.15,-0.30,0.43,1.27
10.417,0.25,-0.19,-0.05,0.32
10.427,-0.47,-0.49,-0.56,0.88
10.437,-0.93,-0.55,-0.10,1.09
10.447,0.25,0.59,0.97,1.16
10.458,1.72,0.78,-0.05,1.89
10.468,1.40,0.96,-0.89,1.92
10.478,0.32,0.70,0.39,0.86
10.488,-1.45,-0.15,0.06,1.46
10.498,-2.51,0.25,-0.12,2.52
10.508,-1.61,-0.32,-0.93,1.89
10.518,-0.29,-0.47,-0.29,0.62
10.528,1.01,0.09,0.51,1.14
10.538,1.39,-0.50,0.16,1.49
10.548,0.07,-0.08,0.33,0.34
10.558,-0.59,-0.44,-0.68,1.00
10.569,-0.30,-0.24,-0.24,0.45
10.579,0.69,0.79,1.01,1.46
10.589,1.27,0.52,0.04,1.37
10.599,0.75,0.55,-0.96,1.33
10.609,0.53,1.04,0.56,1.30
10.619,-1.66,-0.37,-0.22,1.72
10.629,-2.36,0.04,-0.19,2.37
10.639,-0.91,-0.03,-0.77,1.19
10.649,-0.05,-0.63,-0.32,0.71
10.659,0.69,0.28,0.87,1.14
10.669,0.97,-0.60,-0.04,1.14
10.679,0.08,0.26,-0.13,0.30
10.689,-0.75,-0.41,-0.46,0.97
10.700,-0.34,-0.65,-0.03,0.73
10.710,1.09,0.91,1.09,1.79
10.720,1.68,0.43,-0.24,1.75
10.730,0.87,0.82,-0.57,1.32
10.740,-0.25,0.79,0.41,0.93
10.750,-1.96,-0.26,-0.63,2.07
10.760,-2.40,0.06,0.10,2.41
10.770,-0.99,-0.31,-0.85,1.34
10.780,0.35,-0.65,0.02,0.74
10.790,1.07,0.13,0.53,1.21
10.800,0.70,-0.80,0.04,1.06
10.811,-0.32,-0.07,-0.15,0.36
10.821,-0.36,-0.05,-0.31,0.48
10.831,0.09,0.13,0.12,0.19
10.841,1.08,0.70,0.73,1.48
10.851,1.81,0.93,-0.39,2.07
10.861,0.50,1.03,-0.46,1.23
10.871,-1.08,-0.30,0.39,1.18
10.881,-1.75,-0.03,-0.25,1.77
10.891,-2.20,-0.41,-0.40,2.28
10.901,-0.12,0.28,-0.43,0.53
10.911,0.71,-0.06,0.15,0.73
10.921,0.67,-0.05,0.12,0.68
10.932,0.52,0.04,0.21,0.57
10.942,-0.81,-0.93,-0.59,1.37
10.952,-1.28,-0.83,-0.02,1.53
10.962,0.64,-0.05,0.32,0.72
10.972,1.50,0.82,0.74,1.86
10.982,1.68,1.00,-0.20,1.96
10.992,0.71,0.92,-0.99,1.53
11.002,-0.72,0.64,0.42,1.05
11.012,-2.44,-0.42,-0.11,2.48
11.022,-2.42,-0.61,-0.41,2.53
11.032,-0.30,-0.05,-0.44,0.53
11.042,1.08,0.37,0.04,1.15
11.053,0.72,-0.56,0.24,0.95
11.063,0.61,-0.21,0.09,0.65
11.073,-0.19,-0.18,-0.31,0.40
11.083,-1.08,-0.84,-0.31,1.40
11.093,-0.27,-0.15,0.68,0.74
11.103,1.93,1.23,0.52,2.35
11.113,1.54,1.35,-0.72,2.17
11.123,0.59,0.69,-0.42,1.00
11.133,-0.54,0.11,0.25,0.61
11.143,-2.18,-0.38,0.14,2.21
11.153,-1.97,-0.65,-0.35,2.10
11.163,-0.77,-0.18,-0.86,1.17
11.174,0.18,0.34,0.51,0.63
11.184,1.14,-0.03,-0.27,1.18
11.194,0.66,-0.02,0.42,0.79
11.204,-0.25,-0.29,-0.09,0.39
11.214,-0.30,-0.63,-0.56,0.90
11.224,0.39,-0.08,0.65,0.77
11.234,1.00,0.30,0.58,1.19
11.244,0.85,1.05,-0.58,1.47
11.254,0.29,1.36,-0.28,1.42
11.264,-0.58,-0.07,-0.27,0.64
11.274,-1.65,-0.56,0.24,1.76
11.284,-1.33,-0.11,-0.02,1.34
11.295,-0.40,-0.61,-1.16,1.37
11.305,-0.37,-0.12,0.62,0.73
11.315,0.45,0.08,0.17,0.49
11.325,0.71,0.01,-0.39,0.81
11.335,0.11,0.08,0.14,0.19
11.345,-0.54,-0.66,0.25,0.89
11.355,1.09,0.63,-0.60,1.40
11.365,1.39,-0.20,1.30,1.92
11.375,0.44,1.44,-1.21,1.93
11.385,-0.07,0.03,0.73,0.74
11.395,-0.78,1.25,-0.44,1.53
11.405,-2.30,-0.55,-0.29,2.38
11.416,-1.44,0.12,-0.68,1.60
11.426,0.11,-0.17,-0.44,0.48
11.436,0.53,-0.64,1.33,1.57
11.446,1.21,0.09,-1.00,1.57
11.456,-0.55,-1.63,0.49,1.79
11.466,0.01,1.17,-0.65,1.34
11.476,-0.11,-1.03,0.41,1.11
11.486,0.07,0.57,0.20,0.61
11.496,1.64,0.74,0.62,1.90
11.506,1.25,1.01,-1.27,2.05
11.516,-0.27,0.52,0.49,0.76
11.527,-1.18,-0.11,0.02,1.19
11.537,-2.19,0.03,-0.34,2.22
11.547,-1.26,0.23,-0.35,1.33
11.557,0.16,-0.17,-0.45,0.50
11.567,0.91,-0.08,0.26,0.95
11.577,1.00,-0.08,0.33,1.06
11.587,-0.38,-1.00,-0.15,1.08
11.597,-0.99,-0.43,-0.22,1.10
11.607,-0.32,-0.44,-0.08,0.56
11.617,0.24,0.01,-0.21,0.32
11.628,1.75,1.26,1.47,2.61
11.637,1.65,0.87,-0.85,2.05
11.648,0.27,0.67,-0.66,0.98
11.658,-1.10,0.65,0.44,1.35
11.668,-3.07,-0.30,-0.30,3.10
11.678,-1.75,-0.37,-0.48,1.85
11.688,0.31,-0.22,-0.40,0.55
11.698,1.28,-0.17,0.42,1.36
11.708,1.14,-0.51,0.23,1.27
11.718,0.31,-0.21,0.01,0.38
11.728,-1.15,-0.70,-0.58,1.46
11.738,-0.98,-0.29,-0.02,1.02
11.748,-0.01,-0.12,0.13,0.17
11.758,1.69,0.63,0.97,2.05
11.769,2.21,1.51,-0.57,2.74
11.779,0.36,0.13,-0.77,0.85
11.789,-0.93,1.17,0.71,1.66
11.799,-3.07,0.40,-0.33,3.12
11.809,-2.06,-0.69,-1.17,2.47
11.819,0.27,0.32,0.27,0.50
11.829,0.86,-0.95,-0.24,1.30
11.839,1.18,-0.44,0.68,1.44
11.849,0.31,-0.49,0.28,0.64
11.859,-0.36,-0.90,-1.04,1.42
11.869,-0.55,-0.12,0.25,0.62
11.879,-0.03,0.22,0.61,0.66
11.890,1.02,1.00,0.08,1.43
11.900,1.74,1.44,-0.60,2.34
11.910,0.38,0.72,-0.28,0.86
11.920,-1.48,0.62,0.53,1.69
11.930,-1.83,0.48,-0.23,1.91
11.940,-1.57,-1.01,-1.48,2.38
11.950,-0.05,-0.02,0.74,0.74
11.960,0.47,-1.01,-0.20,1.13
11.970,0.85,-0.64,0.37,1.12
11.980,0.35,0.07,0.41,0.54
11.990,-0.84,-1.09,-1.02,1.72
12.000,-0.11,0.32,0.11,0.36
12.011,1.07,0.66,1.15,1.70
12.021,1.28,1.04,-0.55,1.74
12.031,0.72,0.71,-0.43,1.09
12.041,0.11,1.09,0.16,1.11
12.051,-2.11,0.17,0.02,2.12
12.061,-2.27,-0.14,-0.51,2.32
12.071,-0.68,-0.11,-0.81,1.06
12.081,0.42,-0.72,0.30,0.88
12.091,1.03,-0.42,0.24,1.14
12.101,0.35,-0.75,0.47,0.96
12.111,0.21,0.24,-0.37,0.49
12.122,-0.39,-0.14,-0.57,0.71
12.132,-0.42,-0.02,0.21,0.47
12.141,1.18,0.81,0.90,1.69
12.152,1.66,1.18,-0.41,2.08
12.162,0.18,0.24,-0.49,0.57
12.172,-0.58,-0.22,-0.03,0.62
12.182,-1.60,-0.03,0.10,1.60
12.192,-1.96,0.16,0.04,1.97
12.202,-0.50,-0.14,-0.91,1.04
12.212,0.33,0.31,-0.07,0.46
12.222,0.82,0.11,0.23,0.86
12.232,0.65,-0.74,0.01,0.98
12.243,-0.75,-0.63,0.31,1.02
12.253,-0.59,-0.81,-0.38,1.07
12.263,0.14,-0.03,-0.37,0.39
12.273,1.06,0.80,1.23,1.81
12.283,1.92,0.90,-0.43,2.17
12.293,0.65,0.85,-0.78,1.32
12.303,-0.38,0.67,0.56,0.95
12.313,-2.21,-0.37,-0.30,2.26
12.323,-2.65,-0.42,-0.46,2.72
12.333,-0.41,-0.21,-0.50,0.68
12.343,0.84,0.04,0.20,0.87
12.354,0.97,-0.32,0.10,1.02
12.363,0.85,-0.12,0.26,0.90
12.374,-0.38,-0.36,-0.40,0.66
12.384,-1.46,-0.68,-0.10,1.61
12.394,-0.25,-0.25,0.18,0.40
12.404,2.20,1.06,0.85,2.58
12.414,1.76,1.23,-0.53,2.21
12.424,0.51,0.33,-0.67,0.91
12.434,-0.47,0.72,0.51,1.00
12.444,-2.82,-0.07,0.06,2.82
12.454,-2.64,-0.57,-0.93,2.85
12.464,-0.30,-0.01,-0.44,0.54
12.475,0.81,-0.27,0.02,0.86
12.485,1.31,-0.27,0.49,1.42
12.495,0.69,-0.29,0.45,0.87
12.505,-0.01,-0.24,-0.65,0.69
12.515,-0.61,-0.45,-0.33,0.83
12.525,-0.20,0.06,0.76,0.79
12.535,1.10,0.88,0.38,1.46
12.545,1.37,1.21,-0.71,1.96
12.555,0.47,0.76,-0.26,0.93
12.565,-0.82,0.13,0.24,0.86
12.575,-1.85,0.01,0.09,1.85
12.585,-2.03,-0.32,-0.87,2.23
12.595,-0.56,-0.26,-0.31,0.69
12.606,0.47,-0.42,0.11,0.64
12.616,1.21,-0.19,0.27,1.25
12.626,0.59,-0.14,0.43,0.75
12.636,-0.49,-0.54,-0.72,1.02
12.646,-0.54,0.09,-0.07,0.56
12.656,0.48,0.47,0.75,1.00
12.666,1.48,0.76,-0.14,1.67
12.676,1.01,0.70,-0.27,1.26
12.686,0.37,0.86,-0.12,0.94
12.696,-1.37,-0.28,0.18,1.41
12.706,-2.13,-0.09,-0.22,2.14
12.716,-1.66,-0.23,-0.76,1.84
12.727,0.00,-0.57,-0.50,0.75
12.737,0.64,0.06,0.86,1.07
12.747,0.68,-0.40,-0.07,0.79
12.757,0.46,0.06,0.17,0.50
12.767,-0.18,-0.01,-0.65,0.68
12.777,-0.73,-0.73,-0.24,1.06
12.787,0.77,0.63,0.90,1.34
12.797,1.73,0.65,0.27,1.87
12.807,0.64,0.59,-0.81,1.19
12.817,0.19,0.75,0.10,0.78
12.828,-1.13,-0.06,-0.35,1.18
12.837,-2.07,-0.01,0.39,2.11
12.848,-1.52,0.20,-0.58,1.64
12.858,-0.26,-0.60,-0.85,1.07
12.868,0.84,0.47,0.46,1.06
12.878,0.75,-0.96,0.16,1.23
12.888,-0.24,-0.61,0.21,0.69
12.898,-0.32,-0.38,-0.10,0.51
12.908,-0.31,-0.34,-0.89,1.01
12.918,0.38,0.46,1.33,1.46
12.928,1.92,0.92,0.03,2.12
12.938,1.02,1.08,-0.94,1.75
12.948,0.05,0.83,0.25,0.86
12.958,-1.65,-0.29,-0.28,1.69
12.969,-2.52,-0.53,0.12,2.58
12.979,-1.08,0.05,-0.81,1.35
12.989,0.35,-0.32,-0.11,0.49
12.999,0.75,-0.12,0.39,0.86
13.009,0.77,-0.30,-0.14,0.84
13.019,-0.02,-0.26,0.17,0.31
13.029,-1.01,-0.38,-0.29,1.12
13.039,-0.23,-0.30,-0.11,0.39
13.049,1.18,0.94,0.80,1.71
13.059,1.89,0.92,-0.11,2.10
13.069,0.86,0.38,-0.85,1.27
13.079,-0.17,1.00,0.59,1.17
13.090,-1.97,-0.55,-0.15,2.05
13.100,-2.82,-0.28,-0.51,2.87
13.110,-0.94,0.49,-0.56,1.20
13.120,0.53,-0.31,-0.35,0.71
13.130,1.14,0.05,0.53,1.26
13.140,0.92,-0.53,0.33,1.11
13.150,0.08,-0.30,-0.27,0.41
13.160,-0.66,-0.45,-0.42,0.90
13.170,-1.04,-0.98,0.33,1.47
13.180,1.17,1.19,0.84,1.87
13.190,1.97,1.46,-0.41,2.48
13.201,0.84,0.62,-0.94,1.41
13.211,-0.16,0.53,0.44,0.70
13.221,-1.54,-0.25,0.25,1.57
13.231,-2.40,-0.67,-0.40,2.53
13.241,-1.29,-0.41,-0.78,1.57
13.251,0.10,0.04,0.01,0.10
13.261,1.00,0.18,0.14,1.03
13.271,1.00,0.07,0.31,1.05
13.281,-0.07,-0.33,-0.27,0.43
13.291,-0.52,-0.20,-0.37,0.67
13.302,0.08,-0.39,0.24,0.47
13.311,0.89,0.16,0.74,1.17
13.322,1.29,1.16,-0.02,1.74
13.332,0.50,0.92,-0.92,1.39
13.342,-0.48,0.50,0.05,0.70
13.352,-1.39,-0.26,0.13,1.42
13.362,-1.86,-0.73,-0.11,2.00
13.372,-0.85,0.01,-0.79,1.16
13.382,-0.00,-0.54,0.08,0.55
13.392,0.47,-0.17,0.16,0.53
13.402,0.79,0.39,0.26,0.92
13.412,0.52,-0.01,-0.38,0.64
13.422,-0.50,-0.24,-0.29,0.63
13.432,-0.18,-0.12,0.48,0.52
13.443,1.29,0.12,0.30,1.33
13.453,0.88,0.47,-0.03,1.00
13.463,0.62,0.94,-0.34,1.17
13.473,-0.46,0.31,-0.13,0.57
13.483,-1.64,0.62,0.07,1.76
13.493,-2.01,-0.15,-0.42,2.05
13.503,-0.57,-0.09,-1.02,1.17
13.513,0.57,0.03,0.77,0.96
13.523,0.58,-1.17,-0.11,1.31
13.533,0.11,-0.29,0.47,0.56
13.543,-0.02,-0.30,-0.28,0.41
13.554,-0.65,-0.37,-0.87,1.15
13.563,-0.16,0.21,0.74,0.78
13.574,1.40,0.43,0.74,1.64
13.584,1.53,1.00,-0.63,1.93
13.594,0.54,0.64,-0.43,0.94
13.604,-0.61,0.62,0.29,0.91
13.614,-2.50,-0.24,-0.04,2.51
13.624,-1.84,0.10,-0.88,2.04
13.634,-0.13,0.22,-0.16,0.30
13.644,0.69,-0.57,0.03,0.89
13.654,1.28,-0.23,0.35,1.35
13.664,0.13,-0.71,0.07,0.73
13.675,-0.89,-0.64,-0.20,1.11
13.685,-0.84,-0.65,-0.42,1.14
13.695,0.05,-0.02,0.09,0.11
13.705,1.62,1.20,1.16,2.32
13.715,1.89,1.06,-0.56,2.24
13.725,0.53,0.62,-0.78,1.13
13.735,-0.56,0.82,0.35,1.05
13.745,-2.98,-0.18,0.07,2.98
13.755,-2.39,-0.01,-0.53,2.45
13.765,-0.13,-0.42,-0.80,0.91
13.775,1.21,0.23,0.24,1.26
13.785,1.24,-0.64,0.54,1.49
13.796,0.40,-0.67,0.00,0.78
13.806,-0.34,-0.52,-0.30,0.69
13.816,-1.05,-0.74,-0.27,1.31
13.826,-1.05,-0.15,0.06,1.07
13.836,1.58,1.26,1.04,2.27
13.846,2.44,1.52,-0.55,2.93
13.856,0.46,0.20,-1.10,1.21
13.866,0.20,1.17,1.02,1.57
13.876,-2.69,0.21,0.01,2.70
13.886,-3.01,-0.84,-1.27,3.37
13.896,-0.12,0.06,-0.05,0.14
13.906,0.73,-0.56,-0.05,0.92
13.916,1.33,-0.32,0.70,1.53
13.927,0.25,-0.64,0.20,0.71
13.937,-0.17,-0.67,-0.95,1.17
13.947,-0.57,-0.44,-0.02,0.72
13.957,-0.47,-0.19,0.47,0.70
13.967,1.17,0.90,0.99,1.78
13.977,1.68,1.28,-1.05,2.35
13.987,0.65,0.91,-0.68,1.31
13.997,-0.85,1.23,0.72,1.66
14.007,-2.29,0.23,-0.19,2.31
14.017,-1.81,-0.52,-0.99,2.12
14.028,-0.37,-0.24,-0.20,0.49
14.038,0.52,-1.15,0.30,1.29
14.048,0.86,-0.72,0.46,1.21
14.058,0.53,-0.24,0.04,0.58
14.068,-0.13,-0.26,-0.38,0.48
14.078,-0.26,0.39,-0.36,0.59
14.088,0.37,0.37,0.62,0.82
14.098,1.20,1.17,0.26,1.70
14.108,0.92,0.48,-0.44,1.13
14.118,0.32,0.82,-0.47,1.00
14.128,-1.19,-0.07,0.61,1.34
14.138,-2.48,-0.33,-0.66,2.58
14.148,-1.30,0.02,-0.54,1.41
14.159,0.29,-0.03,-0.04,0.29
14.169,0.60,-0.67,-0.09,0.91
14.179,0.77,0.04,0.82,1.12
14.189,0.07,-0.26,-0.38,0.47
14.199,-0.71,-0.54,-0.84,1.23
14.209,-0.54,-0.23,0.61,0.85
14.219,0.80,0.09,0.29,0.85
14.229,1.46,0.75,0.26,1.66
14.239,1.22,1.04,-0.50,1.68
14.249,-0.15,0.27,-0.36,0.48
14.259,-1.40,0.15,0.39,1.46
14.269,-2.12,0.10,-0.33,2.14
14.280,-1.22,-0.05,-0.47,1.31
14.290,0.23,0.08,-0.50,0.56
14.300,0.84,-0.14,0.28,0.89
14.310,0.80,-0.37,0.25,0.92
14.320,-0.39,-0.69,0.09,0.79
14.330,-0.93,-1.23,-0.30,1.57
14.340,-0.03,-0.12,-0.37,0.39
14.350,0.89,0.56,1.18,1.58
14.360,2.20,1.17,-0.04,2.50
14.370,0.97,0.96,-1.04,1.71
14.380,-0.21,0.83,0.21,0.88
14.390,-1.90,0.09,0.20,1.92
14.401,-2.91,-0.49,-0.44,2.98
14.411,-1.03,-0.10,-0.66,1.23
14.421,0.66,-0.12,-0.14,0.69
14.431,0.96,-0.55,0.39,1.17
14.441,1.01,-0.24,0.24,1.06
14.451,0.12,-0.49,-0.01,0.51
14.461,-1.05,-0.70,-0.62,1.40
14.471,-0.92,-0.53,0.10,1.06
14.481,1.58,1.63,1.22,2.58
14.491,1.84,1.04,-0.74,2.24
14.501,0.66,0.63,-0.96,1.33
14.511,0.37,1.04,0.92,1.43
14.522,-2.06,-0.36,-0.09,2.10
14.532,-2.91,-0.33,-0.64,2.99
14.542,-1.03,-0.27,-0.77,1.31
14.552,0.57,-0.27,-0.03,0.63
14.562,1.00,-0.11,0.88,1.33
14.572,0.72,-0.69,-0.10,1.00
14.582,0.19,0.00,-0.28,0.34
14.592,-0.54,-0.37,-0.35,0.74
14.602,-0.56,-0.32,0.18,0.67
14.612,1.13,0.99,1.17,1.90
14.622,1.82,1.11,-0.88,2.31
14.632,0.45,0.76,-0.53,1.03
14.643,-0.48,0.65,0.53,0.97
14.653,-2.07,-0.54,-0.38,2.17
14.663,-2.35,-0.20,-0.38,2.39
14.673,-0.71,-0.32,-0.59,0.98
14.683,0.33,-0.79,0.09,0.86
14.693,1.42,0.32,0.49,1.54
14.703,1.20,0.13,0.04,1.20
14.713,-0.51,-0.32,-0.30,0.67
14.723,-0.76,-0.21,-0.26,0.83
14.733,-0.13,0.20,0.03,0.25
14.743,0.93,0.42,0.87,1.34
14.754,1.54,0.72,-0.41,1.75
14.764,0.77,0.55,-0.47,1.05
14.774,-0.14,0.57,0.39,0.70
14.784,-2.04,-0.29,-0.14,2.06
14.794,-2.55,-0.14,-0.58,2.62
14.804,-0.66,-0.02,-0.66,0.94
14.814,0.45,-0.31,0.24,0.60
14.824,0.61,-0.28,0.37,0.76
14.834,0.77,-0.44,0.13,0.90
14.844,0.03,-0.28,-0.56,0.62
14.854,-0.86,-0.48,-0.01,0.98
14.864,-0.07,-0.33,0.19,0.39
14.875,1.33,0.85,0.68,1.72
14.885,1.43,0.94,-0.39,1.76
14.895,0.39,0.77,-0.68,1.09
14.905,-0.37,0.46,0.55,0.81
14.915,-1.84,-0.20,-0.44,1.90
14.925,-2.04,0.16,0.14,2.05
14.935,-0.76,-0.63,-1.23,1.58
14.945,0.53,-0.46,0.28,0.75
14.955,0.91,-0.17,0.34,0.99
14.966,0.13,-0.81,0.37,0.90
14.975,-0.21,-0.07,-0.16,0.27
14.986,-0.26,-0.15,-0.82,0.88
14.996,0.29,0.51,0.77,0.96
15.006,1.69,0.83,0.44,1.93
15.016,1.19,0.82,-0.65,1.58
15.026,0.10,0.87,0.16,0.89
15.036,-1.38,-0.15,-0.36,1.43
15.046,-2.44,-0.30,0.10,2.46
15.056,-1.55,-0.01,-0.83,1.76
15.066,0.15,-0.30,-0.18,0.39
15.076,0.78,0.03,0.35,0.86
15.086,0.87,-0.60,-0.01,1.06
15.096,0.52,-0.09,0.11,0.54
15.107,-0.88,-0.83,-0.34,1.26
15.117,-0.74,-0.24,0.10,0.79
15.127,0.87,1.21,0.60,1.61
15.137,1.65,0.61,-0.10,1.77
15.147,1.15,1.01,-0.87,1.76
15.157,0.25,0.50,0.62,0.84
15.167,-1.34,-0.42,-0.29,1.43
15.177,-2.75,-0.70,0.25,2.85
15.187,-1.58,-0.09,-1.12,1.94
15.197,0.38,0.27,-0.19,0.50
15.207,0.73,0.30,0.52,0.94
15.217,0.92,-0.35,-0.13,0.99
15.228,0.44,0.14,0.14,0.49
15.238,-0.54,-0.58,-0.67,1.03
15.248,-0.94,-1.00,0.26,1.40
15.258,0.60,0.39,0.96,1.20
15.268,1.84,1.03,-0.07,2.11
15.278,1.01,1.18,-0.92,1.81
15.288,0.01,0.81,0.16,0.82
15.298,-1.07,-0.04,-0.16,1.08
15.308,-2.52,-0.62,0.14,2.59
15.318,-1.56,-0.39,-0.53,1.70
15.328,-0.12,-0.65,-0.66,0.94
15.339,0.76,0.30,0.74,1.11
15.348,1.14,-0.19,-0.15,1.16
15.359,0.19,-0.32,-0.12,0.39
15.369,-0.50,0.00,-0.21,0.55
15.379,-0.63,-0.82,-0.50,1.15
15.389,-1.04,-1.03,0.03,1.46
15.399,-0.16,-0.80,0.28,0.86
15.409,0.08,-0.61,-0.40,0.74
15.419,-0.36,-0.40,-0.31,0.62
15.429,-0.93,-0.69,-0.07,1.16
15.439,-1.29,0.02,-0.44,1.37
15.449,-0.41,0.61,0.25,0.78
15.460,3.56,2.76,2.94,5.38
15.470,2.42,2.01,-3.60,4.78
15.480,0.71,0.90,-0.09,1.15
15.490,0.44,1.86,1.68,2.54
15.500,-1.45,-1.63,-0.32,2.21
15.510,-2.19,-2.30,-0.33,3.19
15.520,1.74,-0.66,0.99,2.11
15.530,2.63,-0.68,-0.71,2.81
15.540,1.15,-0.54,0.29,1.31
15.550,0.78,0.12,1.00,1.28
15.560,0.09,-0.29,-1.13,1.17
15.570,-0.76,-0.85,-0.18,1.15
15.580,-1.65,-0.85,-0.09,1.86
15.591,-5.11,2.78,1.52,6.01
15.601,-2.33,1.28,-3.99,4.79
15.611,0.01,0.40,-0.05,0.40
15.621,1.09,1.49,1.20,2.20
15.631,3.49,-0.15,1.13,3.67
15.641,2.29,0.87,0.32,2.47
15.651,-0.07,0.30,-0.62,0.69
15.661,-1.33,-1.85,-0.97,2.48
15.671,-1.21,-0.12,-0.09,1.22
15.681,-2.08,-0.03,1.32,2.46
15.691,-1.24,0.42,-0.59,1.44
15.701,0.39,0.72,-1.22,1.47
15.712,1.08,0.94,-0.32,1.47
15.722,0.78,-0.07,0.39,0.87
15.732,-0.15,-0.74,0.63,0.98
15.742,-0.40,-0.99,-0.06,1.07
15.752,-0.88,-1.52,-0.56,1.85
15.762,-0.66,-0.37,-0.02,0.76
15.772,1.13,0.72,0.85,1.59
15.782,2.21,1.46,0.44,2.69
15.792,0.72,0.90,-1.41,1.82
15.802,-0.02,0.98,0.15,1.00
15.813,-1.69,0.79,0.01,1.87
15.823,-3.27,-0.95,-0.31,3.42
15.833,-0.41,-0.29,-0.47,0.69
15.843,0.63,-0.35,-0.19,0.75
15.853,1.33,-0.21,0.50,1.43
15.863,0.52,-0.89,0.18,1.04
15.873,-0.53,-0.51,-0.29,0.79
15.883,-0.62,-0.31,-0.41,0.80
15.893,-0.69,-0.39,0.11,0.80
15.903,0.71,0.55,1.05,1.38
15.913,1.94,1.08,-0.38,2.25
15.923,1.40,1.21,-0.81,2.02
15.933,-0.20,0.90,0.38,1.00
15.944,-2.37,0.57,0.04,2.44
15.954,-2.55,-0.39,-0.83,2.71
15.964,-0.29,-0.56,-0.66,0.91
15.974,0.44,-0.53,0.66,0.95
15.984,0.84,-0.86,0.15,1.21
15.994,1.01,-0.49,0.19,1.13
16.004,-0.35,-0.13,-0.24,0.45
16.014,-0.74,-0.43,-0.68,1.09
16.024,-0.04,0.10,0.38,0.39
16.034,0.78,0.82,0.89,1.44
16.044,1.51,1.09,-0.28,1.89
16.054,1.09,1.03,-0.84,1.72
16.065,-0.48,0.70,0.19,0.87
16.075,-2.55,0.01,0.24,2.57
16.085,-2.12,-0.55,-0.93,2.38
16.095,0.03,-0.48,-0.31,0.57
16.105,0.47,-1.09,0.33,1.23
16.115,0.83,-0.18,0.60,1.03
16.125,0.65,0.08,-0.08,0.66
16.135,-0.93,-0.24,-0.93,1.34
16.145,-0.78,-0.11,0.13,0.80
16.155,0.47,0.00,0.16,0.50
16.165,1.15,0.42,0.82,1.47
16.175,1.65,0.95,-0.25,1.93
16.186,0.41,0.36,-0.75,0.93
16.196,-1.03,0.64,0.27,1.24
16.206,-2.36,0.19,-0.06,2.37
16.216,-1.54,0.04,-0.87,1.77
16.226,-0.14,-0.17,-0.31,0.38
16.236,0.96,0.93,-0.51,1.43
16.246,0.56,2.86,-2.60,3.90
16.256,-0.24,4.21,-1.98,4.65
16.266,0.30,4.34,0.25,4.36
16.276,-0.46,3.29,-1.29,3.56
16.286,0.64,-0.15,-2.37,2.46
16.296,-1.40,-9.96,14.50,17.65
16.306,0.24,2.08,-7.79,8.07
16.317,2.32,-1.50,-1.42,3.11
16.327,-1.89,-4.98,9.32,10.74
16.337,0.11,0.14,-1.63,1.64
16.347,-1.50,-0.04,-6.23,6.40
16.357,0.64,0.70,-1.79,2.02
16.367,0.16,-1.33,0.33,1.37
16.377,-0.75,-1.17,2.89,3.20
16.388,1.58,0.65,1.64,2.37
16.397,0.08,-0.39,-0.45,0.60
16.407,-1.78,-0.33,-2.55,3.13
16.418,-0.17,-0.12,-0.97,1.00
16.428,1.23,0.66,1.94,2.39
16.438,1.56,0.84,1.04,2.05
16.448,1.46,0.34,-0.25,1.52
16.458,0.28,0.39,-1.14,1.23
16.468,-1.37,0.06,-0.45,1.44
16.478,-2.72,-0.42,0.39,2.78
16.488,-1.53,-0.11,-0.39,1.58
16.498,0.34,0.61,0.13,0.71
16.508,0.82,0.03,-0.38,0.91
16.518,0.76,-0.27,-0.21,0.84
16.528,0.33,-0.17,0.42,0.56
16.538,-0.78,-1.17,-0.18,1.42
16.549,-1.22,-0.92,-0.01,1.53
16.559,1.11,0.67,0.65,1.45
16.569,2.09,1.17,0.02,2.40
16.579,1.00,1.10,-0.88,1.73
16.589,0.24,0.96,0.30,1.04
16.599,-1.84,-0.10,0.07,1.84
16.609,-2.64,-0.16,-0.41,2.68
16.619,-1.49,-0.66,-0.93,1.87
16.629,0.44,-0.29,-0.03,0.53
16.639,1.58,0.08,0.59,1.69
16.649,0.83,-0.39,0.17,0.93
16.659,-0.15,0.10,0.08,0.20
16.670,-0.62,0.03,-0.76,0.98
16.680,-0.93,-0.37,-0.15,1.01
16.690,0.87,0.45,1.00,1.40
16.700,2.03,0.77,-0.00,2.18
16.710,1.21,0.72,-0.55,1.51
16.720,-0.18,0.49,0.37,0.64
16.730,-1.98,-0.28,-0.55,2.07
16.740,-2.60,0.10,-0.13,2.61
16.750,-0.93,-0.21,-0.56,1.11
16.760,0.24,-0.29,0.06,0.38
16.771,1.02,0.20,0.35,1.09
16.781,1.08,-0.24,-0.30,1.14
16.791,-0.35,-0.28,0.32,0.55
16.801,-0.93,-0.88,-0.62,1.42
16.811,-0.65,-0.42,-0.08,0.77
16.821,0.75,0.27,0.85,1.16
16.831,1.75,0.67,0.23,1.89
16.841,1.15,0.94,-0.87,1.73
16.851,0.26,0.92,0.06,0.95
16.861,-1.23,0.55,0.17,1.36
16.871,-2.59,-0.64,-0.38,2.69
16.881,-1.12,-0.06,-0.71,1.32
16.891,0.05,-0.80,-0.25,0.84
16.902,0.64,-0.37,0.71,1.03
16.912,0.67,-0.20,0.09,0.71
16.922,-0.02,-0.35,-0.23,0.42
16.932,-0.43,0.18,-0.41,0.62
16.942,-0.30,-0.58,-0.04,0.66
16.952,1.05,0.87,0.96,1.67
16.962,1.65,1.02,-0.03,1.94
16.972,0.48,0.44,-1.01,1.20
16.982,-0.02,0.87,0.38,0.95
16.992,-1.72,-0.44,-0.11,1.78
17.002,-1.88,0.24,-0.13,1.90
17.012,-1.00,-0.38,-0.71,1.28
17.023,0.16,-0.56,-0.38,0.70
17.033,1.06,0.05,0.47,1.16
17.043,0.47,-1.01,0.21,1.14
17.053,-0.69,-0.26,0.16,0.76
17.063,-0.31,0.04,-0.60,0.68
17.073,0.13,0.08,-0.09,0.18
17.083,1.22,0.99,1.03,1.87
17.093,1.80,0.70,-0.67,2.04
17.103,0.66,0.65,-0.17,0.95
17.113,-0.98,0.21,0.30,1.05
17.123,-2.44,-0.68,-0.27,2.55
17.133,-2.01,0.05,-0.59,2.10
17.143,-0.06,0.18,-0.45,0.48
17.154,0.52,-0.24,0.09,0.58
17.164,1.02,0.16,0.37,1.10
17.174,0.62,-0.23,0.02,0.66
17.184,-0.86,-0.77,-0.36,1.21
17.194,-0.83,-0.39,-0.16,0.93
17.204,0.52,0.04,0.49,0.72
17.214,1.59,1.21,0.68,2.11
17.224,1.34,1.06,-0.91,1.94
17.234,0.39,0.70,-0.31,0.86
17.244,-1.12,0.16,0.17,1.14
17.254,-2.18,-0.94,0.14,2.38
17.265,-2.03,-0.62,-0.61,2.21
17.275,0.26,0.33,-0.22,0.48
17.285,1.18,0.44,0.13,1.27
17.295,0.56,-0.17,-0.12,0.60
17.305,0.26,0.21,0.28,0.43
17.315,-0.51,-0.30,-0.51,0.78
17.325,-1.18,-1.31,-0.29,1.78
17.335,0.12,-0.18,0.93,0.96
17.345,1.99,0.99,0.41,2.26
17.355,1.71,1.09,-0.76,2.17
17.365,0.43,1.13,-0.16,1.22
17.375,-1.10,0.07,-0.13,1.11
17.386,-2.13,-0.21,-0.00,2.14
17.396,-1.79,-0.56,-0.33,1.91
17.406,-0.70,-0.67,-0.50,1.09
17.416,0.80,0.43,0.49,1.03
17.426,1.23,-0.12,-0.33,1.28
17.436,0.05,0.09,0.38,0.39
17.446,-0.43,-0.49,-0.42,0.77
17.456,-0.70,-0.72,-0.47,1.11
17.466,0.07,-0.13,0.83,0.84
17.476,1.29,0.29,0.60,1.45
17.487,1.31,1.26,-0.59,1.91
17.497,0.63,1.01,-0.69,1.38
17.507,-0.15,0.64,0.32,0.73
17.517,-2.02,-0.79,0.08,2.17
17.527,-1.84,-0.41,-0.53,1.96
17.537,-0.24,-0.48,-0.69,0.87
17.547,-0.61,-0.55,0.35,0.90
17.557,0.74,0.04,0.39,0.84
17.567,0.79,0.07,-0.35,0.87
17.577,-0.14,0.22,-0.03,0.26
17.587,-0.10,-0.58,-0.34,0.68
17.597,0.47,0.26,0.65,0.85
17.607,1.46,0.64,0.44,1.65
17.617,0.55,0.26,-0.85,1.05
17.628,0.10,1.06,0.30,1.10
17.638,-1.02,0.34,-0.13,1.08
17.648,-1.85,0.25,-0.23,1.88
17.658,-1.24,-0.06,-0.50,1.34
17.668,0.04,-0.51,-0.67,0.84
17.678,1.05,0.10,0.60,1.21
17.688,0.36,-1.34,0.23,1.41
17.698,-0.48,-0.27,0.15,0.57
17.708,-0.19,0.49,-0.48,0.71
17.718,-0.50,-0.49,-0.49,0.86
17.728,0.45,0.47,0.75,0.99
17.739,2.17,0.94,0.67,2.46
17.749,1.31,0.59,-1.10,1.81
17.759,-0.18,0.41,0.24,0.51
17.769,-1.76,0.21,0.22,1.79
17.779,-2.62,0.02,-0.68,2.71
17.789,-0.89,0.36,-0.52,1.09
17.799,0.32,-0.31,-0.11,0.46
17.809,1.14,-0.39,0.40,1.27
17.819,1.01,-0.23,0.22,1.06
17.829,-0.64,-1.14,-0.35,1.35
17.839,-1.19,-0.68,-0.14,1.37
17.850,-0.25,-0.32,-0.12,0.42
17.860,0.86,0.88,0.50,1.33
17.870,1.92,1.41,0.72,2.48
17.880,1.29,0.78,-1.34,2.02
17.890,0.06,0.91,0.05,0.92
17.900,-1.78,-0.10,0.21,1.79
17.910,-2.83,-0.78,-0.23,2.94
17.920,-1.10,-0.27,-0.59,1.27
17.930,0.99,-0.02,-0.15,1.00
17.940,1.14,0.22,0.39,1.22
17.950,0.74,-0.18,0.13,0.77
17.960,-0.01,-0.07,-0.15,0.17
17.970,-1.43,-0.84,-0.55,1.75
17.981,-0.83,-0.76,-0.03,1.12
17.991,0.75,-0.06,0.58,0.95
18.001,1.77,0.89,0.80,2.13
18.011,1.79,1.20,-0.87,2.32
18.021,0.33,0.67,-0.31,0.81
18.031,-1.67,0.97,0.30,1.96
18.041,-2.89,-0.07,-0.66,2.96
18.051,-1.26,-0.46,-0.74,1.53
18.061,0.08,-0.04,1.16,1.16
18.071,1.32,-0.56,-1.34,1.96
18.081,0.78,-1.08,1.22,1.81
18.091,0.20,0.05,-0.43,0.47
18.102,-0.91,-1.44,-0.32,1.73
18.112,-0.80,0.37,0.04,0.88
18.122,-0.17,-0.09,0.25,0.32
18.132,2.00,1.45,0.61,2.54
18.142,1.73,0.96,-1.04,2.23
18.152,0.56,0.60,0.03,0.82
18.162,-1.10,1.25,0.78,1.84
18.172,-2.91,-0.38,-0.90,3.07
18.182,-1.78,-0.90,-1.18,2.32
18.192,0.26,-0.21,0.74,0.81
18.203,0.96,-0.70,-0.04,1.19
18.213,0.66,-0.75,0.33,1.05
18.223,0.29,-0.09,0.06,0.31
18.233,-0.66,-0.76,-0.88,1.34
18.243,-0.36,0.11,0.37,0.53
18.253,0.88,0.51,0.74,1.26
18.263,1.25,0.96,-0.06,1.58
18.273,1.06,1.31,-0.73,1.83
18.283,-0.07,0.62,-0.06,0.63
18.293,-1.57,0.64,0.26,1.71
18.303,-2.29,-0.25,-0.28,2.32
18.313,-0.73,-0.32,-0.95,1.23
18.323,0.71,-0.53,0.04,0.89
18.333,0.59,-0.98,0.60,1.29
18.344,-0.02,-0.64,0.13,0.66
18.354,-0.26,-0.44,-0.18,0.54
18.364,-0.20,-0.11,-0.42,0.48
18.374,-0.19,0.26,-0.03,0.33
18.384,1.77,1.24,1.18,2.46
18.394,1.58,1.15,-0.75,2.09
18.404,0.38,0.67,-0.51,0.92
18.414,-0.24,0.55,0.40,0.72
18.424,-2.49,-0.65,0.07,2.57
18.434,-2.12,-0.20,-0.79,2.27
18.445,-0.28,-0.55,-0.43,0.76
18.455,0.28,-0.09,0.18,0.34
18.465,1.14,-0.17,0.55,1.28
18.475,0.63,-0.54,-0.09,0.83
18.485,-0.87,-0.33,-0.42,1.02
18.495,-0.39,-0.21,-0.32,0.55
18.505,0.24,0.34,0.59,0.72
18.515,1.32,0.79,0.73,1.70
18.525,1.59,0.93,-0.90,2.05
18.535,0.46,0.66,-0.26,0.85
18.545,-0.86,-0.21,0.15,0.90
18.555,-2.31,-0.85,0.14,2.46
18.566,-1.95,-0.21,-0.61,2.05
18.575,0.15,0.42,-0.29,0.53
18.586,0.86,0.24,-0.11,0.90
18.596,0.64,0.06,0.21,0.68
18.606,0.78,0.21,0.11,0.82
18.616,-0.87,-0.58,-0.42,1.13
18.626,-1.17,-1.07,-0.04,1.58
18.636,0.55,-0.16,0.37,0.69
18.646,1.78,0.76,0.77,2.08
18.656,1.72,1.16,-0.50,2.13
18.666,0.16,0.75,-0.59,0.96
18.676,-1.14,0.51,0.13,1.26
18.687,-2.16,-0.16,-0.07,2.17
18.697,-2.28,-0.55,-0.65,2.44
18.707,-0.14,-0.01,-0.05,0.15
18.717,1.18,-0.39,-0.32,1.29
18.727,1.03,0.00,0.63,1.20
18.737,0.35,-0.33,0.04,0.48
18.747,-0.54,-0.49,-0.59,0.94
18.757,-0.87,-0.28,0.06,0.91
18.767,-0.23,-0.12,0.29,0.39
18.777,1.59,0.84,0.69,1.93
18.787,1.66,0.78,-1.00,2.09
18.797,1.11,1.08,0.27,1.57
18.808,-1.12,-0.21,0.17,1.15
18.818,-2.46,-0.07,-0.40,2.50
18.828,-2.01,-0.05,-0.61,2.10
18.838,-0.72,-0.53,-0.50,1.03
18.848,0.78,0.09,0.54,0.96
18.858,1.28,-0.57,-0.08,1.40
18.868,0.71,0.05,0.40,0.82
18.878,-0.49,-0.58,-0.40,0.86
18.888,-0.63,-0.37,-0.25,0.77
18.898,0.43,0.68,0.83,1.16
18.908,1.24,0.67,-0.17,1.42
18.919,1.08,0.98,-0.43,1.52
18.928,0.39,0.81,-0.04,0.90
18.939,-0.96,-0.11,0.07,0.97
18.949,-1.90,-0.19,0.00,1.91
18.959,-1.65,-0.35,-0.79,1.86
18.969,-0.05,-0.70,-0.52,0.87
18.979,0.55,-0.25,0.64,0.87
18.989,0.01,-0.52,0.07,0.52
18.999,0.53,0.29,0.06,0.61
19.009,-0.17,-0.09,-0.54,0.57
19.019,-0.55,-0.39,-0.05,0.68
19.029,1.34,0.87,1.07,1.92
19.039,1.65,0.72,-0.38,1.84
19.050,0.39,0.42,-0.67,0.87
19.060,0.01,0.51,0.50,0.71
19.070,-1.57,-0.30,-0.36,1.64
19.080,-2.22,0.27,0.11,2.24
19.090,-1.18,-0.27,-0.91,1.51
19.100,0.15,-0.35,-0.30,0.49
19.110,1.08,0.43,0.60,1.31
19.120,0.69,-0.90,0.05,1.13
19.130,-0.17,0.08,0.20,0.28
19.140,-0.47,-0.34,-0.52,0.78
19.150,-0.30,0.04,-0.34,0.46
19.160,0.74,0.62,1.27,1.60
19.171,1.59,0.44,-0.67,1.78
19.181,0.97,0.88,-0.28,1.34
19.191,-0.40,0.13,0.43,0.60
19.201,-2.01,-0.75,-0.57,2.22
19.211,-2.03,0.01,0.10,2.03
19.221,-0.37,0.52,-0.77,1.00
19.231,0.48,-0.07,-0.07,0.49
19.241,0.76,0.34,0.33,0.90
19.251,0.56,-0.28,-0.07,0.63
19.261,-0.55,-0.62,-0.17,0.85
19.271,-0.84,-0.99,-0.10,1.30
19.281,-0.09,-0.11,0.12,0.19
19.291,1.28,0.72,0.67,1.61
19.302,1.88,1.24,0.01,2.26
19.312,0.60,0.85,-1.06,1.49
19.322,-0.48,0.52,0.27,0.76
19.332,-1.75,-0.47,0.04,1.81
19.342,-2.71,-0.81,-0.17,2.83
19.352,-0.86,-0.19,-0.59,1.06
19.362,1.15,0.19,-0.25,1.19
19.372,0.71,0.17,0.47,0.87
19.382,0.75,-0.27,-0.09,0.80
19.392,-0.26,-0.40,-0.16,0.50
19.403,-1.03,-0.43,-0.13,1.12
19.413,-0.65,-0.71,0.03,0.96
19.423,1.23,0.68,0.76,1.60
19.433,2.09,1.40,-0.18,2.52
19.443,1.09,0.88,-0.65,1.55
19.453,-0.27,0.33,0.16,0.46
19.463,-1.90,-0.68,-0.09,2.02
19.473,-1.99,-0.62,-0.21,2.10
19.483,-1.41,-0.45,-0.46,1.55
19.493,0.17,0.25,-0.08,0.32
19.503,1.08,0.25,-0.05,1.11
19.513,0.86,0.16,0.17,0.89
19.523,0.04,-0.34,0.07,0.35
19.534,-0.63,-0.47,-0.49,0.93
19.544,0.14,-0.39,0.47,0.63
19.554,0.67,0.10,0.47,0.82
19.564,1.14,1.18,-0.05,1.65
19.574,0.63,1.01,-0.69,1.37
19.584,-0.25,0.57,-0.13,0.64
19.594,-1.41,-0.35,0.34,1.49
19.604,-1.64,-0.48,-0.48,1.78
19.614,-0.60,-0.22,-0.53,0.83
19.624,-0.20,-0.65,-0.19,0.71
19.634,-0.00,-0.56,0.64,0.85
19.644,0.93,0.94,-0.00,1.33
19.655,0.03,-0.27,-0.49,0.56
19.665,-0.48,-0.21,-0.39,0.65
19.675,0.64,0.18,0.66,0.94
19.685,1.44,0.28,0.42,1.53
19.695,0.61,0.30,-0.42,0.80
19.705,0.37,0.59,0.08,0.70
19.715,-0.72,0.62,-0.36,1.01
19.725,-2.01,0.21,0.14,2.03
19.735,-1.59,-0.08,-0.76,1.77
19.745,-0.24,-0.17,-0.47,0.56
19.755,0.84,0.07,0.53,0.99
19.766,0.65,-1.09,-0.04,1.27
19.776,-0.10,-0.23,0.44,0.51
19.786,-0.33,-0.34,-0.60,0.77
19.796,-0.43,-0.06,-0.43,0.61
19.806,-0.05,0.23,0.60,0.64
19.816,1.57,0.69,0.63,1.83
19.826,1.53,1.05,-0.83,2.03
19.836,0.33,0.36,-0.12,0.50
19.846,-1.07,-0.21,0.07,1.09
19.856,-2.45,-0.29,0.01,2.46
19.866,-1.15,0.88,-0.45,1.52
19.876,-0.06,-0.23,-0.53,0.58
19.887,0.82,0.37,0.16,0.92
19.897,1.24,-0.12,0.04,1.25
19.907,-0.29,-0.87,0.12,0.93
19.917,-1.14,-1.01,0.00,1.52
19.927,-0.29,-0.63,-0.23,0.72
19.937,0.01,0.03,-0.06,0.06
19.947,1.47,0.95,0.81,1.93
19.957,1.95,1.29,-0.21,2.35
19.967,0.44,0.77,-0.82,1.21
19.977,-0.95,0.57,0.18,1.12
19.987,-2.95,-0.06,-0.02,2.95
19.997,-1.90,-0.40,-0.62,2.04
20.008,0.28,-0.44,-0.49,0.72
20.018,1.03,-0.25,0.58,1.21
20.028,1.25,-0.39,0.09,1.31
20.038,-0.04,-0.32,0.10,0.34
20.048,-0.86,-0.42,-0.56,1.11
20.058,-0.84,-0.62,-0.22,1.07
20.068,-0.06,0.29,0.34,0.45
20.078,0.87,0.03,0.55,1.03
20.088,2.43,1.42,-0.08,2.82
20.098,0.96,0.53,-0.76,1.34
20.108,-0.52,0.49,0.37,0.80
20.119,-2.61,0.72,-0.09,2.71
20.129,-2.68,-0.74,-0.95,2.94
20.139,-0.07,0.34,-0.05,0.35
20.149,0.56,-0.79,-0.18,0.99
20.159,1.56,-0.22,0.29,1.61
20.169,0.61,-0.37,0.49,0.87
20.179,-0.47,-0.64,-0.55,0.97
20.189,-0.58,-0.55,-0.28,0.85
20.199,-0.92,-0.57,0.35,1.14
20.209,1.18,1.41,0.79,2.00
20.219,1.68,0.61,-0.48,1.85
20.230,0.96,0.79,-0.93,1.55
20.240,-0.56,1.09,0.94,1.54
20.250,-2.60,0.32,-0.40,2.65
20.260,-1.61,-0.34,-1.06,1.96
20.270,-0.14,-0.24,0.28,0.40
20.280,0.18,-1.06,-0.27,1.11
20.290,1.14,-0.39,0.57,1.34
20.300,0.27,-0.39,0.32,0.57
20.310,-0.76,-0.75,-0.75,1.30
20.320,-0.14,0.05,-0.24,0.28
20.330,0.83,0.24,0.64,1.07
20.340,1.26,1.01,0.46,1.68
20.350,1.17,1.21,-0.49,1.75
20.361,-0.03,0.68,-0.47,0.83
20.371,-1.33,0.93,0.21,1.63
20.381,-2.43,-0.25,-0.25,2.45
20.391,-1.07,-0.30,-0.92,1.44
20.401,0.53,-0.37,0.25,0.69
20.411,0.66,-1.17,0.02,1.34
20.421,0.43,-0.46,0.65,0.91
20.431,-0.12,-0.40,-0.21,0.46
20.441,-0.40,0.20,-0.63,0.77
20.451,-0.49,0.12,0.04,0.51
20.461,1.05,0.79,0.68,1.48
20.471,1.84,1.23,0.16,2.21
20.482,0.67,0.44,-0.82,1.15
20.492,-0.56,-0.32,0.02,0.65
20.502,-1.67,-0.42,0.08,1.72
20.512,-1.72,0.19,0.16,1.74
20.522,-0.63,-0.19,-0.88,1.10
20.532,0.33,0.28,-0.09,0.44
20.542,1.00,0.82,0.09,1.30
20.552,0.53,-0.71,-0.10,0.89
20.562,-1.14,-0.87,0.33,1.47
20.572,-0.25,-0.45,-0.35,0.62
20.583,0.18,-0.33,0.03,0.37
20.593,1.03,0.66,0.69,1.40
20.603,1.60,0.62,0.04,1.71
20.613,0.58,0.90,-0.91,1.41
20.623,-0.25,0.55,0.36,0.70
20.633,-1.82,-0.16,0.03,1.82
20.643,-2.36,-0.23,-0.31,2.40
20.653,-0.66,-0.26,-0.89,1.14
20.663,0.55,-0.03,0.01,0.55
20.673,1.06,-0.17,0.64,1.25
20.683,0.53,-0.46,-0.04,0.70
20.693,-0.34,-0.14,-0.14,0.40
20.703,-0.82,-0.44,-0.54,1.07
20.714,-0.87,-0.67,0.15,1.11
20.724,1.16,0.47,0.73,1.45
20.734,2.43,1.12,0.42,2.71
20.744,0.85,0.53,-1.17,1.54
20.754,-0.05,0.51,0.25,0.57
20.764,-1.99,0.31,0.20,2.02
20.774,-2.90,-0.28,-0.51,2.96
20.784,-0.93,0.00,-0.71,1.17
20.794,0.66,-0.26,-0.13,0.72
20.804,1.19,-0.18,0.56,1.33
20.814,0.50,-0.26,0.35,0.66
20.824,0.14,-0.12,-0.26,0.32
20.834,-0.06,-0.29,-0.63,0.70
20.845,-0.76,-0.54,0.23,0.96
20.855,0.75,0.82,1.05,1.53
20.865,1.33,0.64,-0.50,1.56
20.875,0.88,0.70,-0.10,1.13
20.885,0.26,0.08,2.06,2.08
20.895,-1.71,0.09,-0.82,1.90
20.905,-2.17,0.03,-2.08,3.01
20.915,-1.25,-0.34,-1.94,2.33
20.925,-0.12,0.32,-0.39,0.52
20.935,0.92,-0.09,1.29,1.59
20.946,1.29,-0.57,1.25,1.89
