time,ax,ay,az,atotal
0.000,-0.73,0.56,2.86,3.01
0.010,-2.00,-0.87,1.80,2.83
0.020,-1.00,0.12,-0.11,1.01
0.030,0.07,0.16,-2.34,2.35
0.040,0.53,-0.14,-1.62,1.71
0.050,0.81,0.23,0.84,1.19
0.060,-0.36,-1.03,1.43,1.79
0.070,-0.58,-0.79,0.60,1.16
0.081,0.46,0.05,-0.66,0.81
0.091,0.83,0.31,-0.36,0.95
0.101,1.61,0.96,-0.22,1.89
0.111,0.66,0.72,-0.03,0.98
0.121,-0.27,0.47,0.77,0.94
0.131,-1.55,-0.28,-0.24,1.60
0.141,-2.56,-0.47,-0.93,2.76
0.151,-0.76,0.23,-0.37,0.88
0.161,0.64,0.22,-0.15,0.69
0.172,0.53,-0.49,0.57,0.92
0.182,0.72,-0.22,0.05,0.75
0.192,0.02,-0.45,-0.18,0.48
0.202,-0.77,-0.64,-0.33,1.05
0.212,-0.53,-0.52,-0.05,0.75
0.222,1.96,1.04,1.22,2.53
0.232,1.52,0.77,-0.63,1.81
0.242,0.66,0.34,-0.73,1.05
0.252,-0.27,0.83,0.66,1.09
0.262,-2.10,0.23,0.06,2.11
0.272,-2.52,-0.23,-0.87,2.67
0.282,-0.82,-0.04,-0.72,1.09
0.292,0.26,-0.15,-0.08,0.31
0.303,0.87,-0.62,0.48,1.17
0.312,0.83,-0.12,0.65,1.06
0.323,0.23,-0.32,-0.31,0.50
0.333,0.13,-0.33,-0.75,0.83
0.343,-0.05,-0.10,0.53,0.54
0.353,0.61,0.66,0.58,1.07
0.363,0.99,0.60,-0.60,1.31
0.373,0.78,0.62,-0.12,1.00
0.383,-0.52,0.43,0.08,0.68
0.393,-1.49,0.09,0.23,1.51
0.403,-2.00,-0.13,-0.75,2.14
0.413,-0.98,-0.30,-0.86,1.34
0.424,0.05,-0.31,0.31,0.44
0.434,0.88,-0.43,0.27,1.01
0.444,1.00,-0.35,0.56,1.20
0.454,0.09,-0.30,-0.32,0.45
0.464,-0.42,-0.21,-0.53,0.71
0.474,0.51,0.73,0.76,1.17
0.484,1.11,0.80,-0.12,1.38
0.494,0.81,0.97,-0.31,1.30
0.504,0.53,0.97,0.36,1.16
0.514,-1.10,-0.53,-0.56,1.35
0.524,-1.80,-0.25,0.06,1.82
0.535,-1.65,-0.40,-0.36,1.74
0.544,-0.51,-0.57,-0.78,1.09
0.555,0.36,-0.20,0.56,0.69
0.565,0.53,-0.44,-0.28,0.74
0.575,0.91,0.36,0.74,1.22
0.585,0.28,0.42,-0.28,0.58
0.595,-0.87,-0.88,-0.87,1.51
0.605,0.46,0.48,0.92,1.14
0.615,1.48,0.86,0.04,1.71
0.625,0.54,-0.16,-0.47,0.73
0.635,0.72,0.97,0.48,1.30
0.645,-0.89,-0.15,-0.37,0.97
0.656,-1.77,-0.18,-0.19,1.79
0.666,-1.45,0.59,-0.08,1.57
0.676,-1.03,-1.14,-1.37,2.06
0.686,0.67,0.77,0.87,1.34
0.696,0.76,-0.33,0.17,0.84
0.706,0.10,-1.17,-0.26,1.20
0.716,-0.05,0.26,0.32,0.42
0.726,-0.08,-0.66,-0.75,1.00
0.736,0.22,0.07,0.93,0.96
0.746,1.75,1.32,0.39,2.22
0.756,0.68,0.03,-1.18,1.36
0.767,0.43,1.26,0.28,1.36
0.777,-1.30,0.07,0.20,1.32
0.787,-2.38,-0.61,-0.49,2.50
0.797,-1.04,0.44,-0.25,1.16
0.807,-0.09,-0.43,-0.79,0.91
0.817,0.46,-0.39,0.32,0.68
0.827,0.75,-0.29,0.48,0.94
0.837,0.19,-0.57,-0.11,0.61
0.847,-0.66,-0.37,-0.16,0.78
0.857,-0.03,-0.05,-0.16,0.17
0.867,0.93,0.64,0.72,1.34
0.877,1.28,1.01,-0.27,1.65
0.888,0.98,0.73,-0.50,1.32
0.897,0.10,0.69,0.36,0.79
0.908,-1.40,-0.47,-0.16,1.49
0.918,-2.16,-0.68,-0.24,2.28
0.928,-1.51,0.31,-0.49,1.62
0.938,0.23,0.08,-0.51,0.57
0.948,0.63,-0.01,0.32,0.71
0.958,0.88,-0.21,0.31,0.96
0.968,0.52,-0.36,-0.13,0.65
0.978,-0.25,-0.07,-0.04,0.27
0.988,-0.93,-1.33,-0.17,1.63
0.998,0.79,0.80,0.70,1.33
1.008,1.94,1.92,0.26,2.74
1.019,0.61,0.32,-1.36,1.52
1.028,-0.09,0.41,0.17,0.46
1.039,-1.22,-0.07,0.49,1.31
1.049,-1.97,-1.27,-0.43,2.38
1.059,-1.14,-0.08,-0.22,1.16
1.069,-0.46,0.02,-0.50,0.68
1.079,0.51,0.42,0.13,0.67
1.089,1.02,0.49,0.03,1.13
1.099,0.38,-0.52,-0.07,0.64
1.109,-0.27,-0.41,-0.05,0.49
1.120,-0.01,-0.73,0.31,0.79
1.130,0.71,0.05,0.32,0.78
1.140,0.98,0.86,0.10,1.30
1.150,0.50,1.15,-0.61,1.40
1.160,0.01,0.77,-0.12,0.78
1.170,-1.03,-0.07,-0.00,1.03
1.180,-1.72,-0.69,-0.06,1.86
1.190,-1.06,-0.52,-0.52,1.29
1.200,-0.41,-0.30,-0.37,0.62
1.210,0.24,-0.40,0.46,0.65
1.220,0.88,0.62,0.21,1.10
1.230,0.74,0.17,-0.24,0.79
1.240,-0.03,-0.11,-0.64,0.65
1.250,-0.60,-0.30,0.53,0.85
1.261,1.06,0.08,0.55,1.20
1.271,1.04,0.33,-0.20,1.11
1.281,0.28,0.51,-0.20,0.62
1.291,0.23,0.57,-0.21,0.65
1.301,-1.24,-0.09,0.13,1.25
1.311,-1.94,0.23,-0.05,1.96
1.321,-1.11,-0.09,-1.05,1.53
1.331,-0.02,0.14,-0.05,0.15
1.341,0.88,-0.49,0.25,1.03
1.351,0.30,-0.79,0.28,0.89
1.361,0.11,-0.02,0.34,0.36
1.372,-0.34,-0.50,-0.83,1.02
1.382,-0.53,-0.10,0.07,0.54
1.392,1.19,0.52,0.82,1.53
1.402,1.73,0.87,-0.17,1.95
1.412,0.65,0.78,-0.49,1.13
1.422,-0.35,0.35,0.15,0.51
1.432,-2.02,-0.17,-0.15,2.03
1.442,-2.14,0.14,-0.23,2.16
1.452,-0.48,-0.00,-0.72,0.87
1.462,0.38,-0.27,-0.15,0.49
1.472,1.14,0.00,0.58,1.28
1.483,0.70,-0.53,-0.03,0.88
1.492,-0.87,-0.61,0.15,1.07
1.503,-0.88,-0.61,-0.70,1.28
1.513,-0.09,-0.47,0.13,0.50
1.523,1.49,1.28,1.05,2.23
1.533,1.98,0.65,-0.28,2.10
1.543,0.84,0.67,-0.81,1.35
1.553,-0.29,0.73,0.49,0.93
1.563,-2.34,-0.03,-0.01,2.34
1.573,-2.57,0.04,-0.54,2.62
1.583,-0.89,-0.54,-0.93,1.40
1.593,0.90,-0.07,0.17,0.92
1.603,0.93,-0.52,0.52,1.19
1.613,0.72,-0.43,0.33,0.90
1.624,0.12,-0.23,-0.28,0.38
1.634,-0.79,-0.81,-0.44,1.22
1.644,-0.82,-0.20,-0.06,0.85
1.654,1.24,0.80,1.18,1.89
1.664,2.18,1.35,-0.32,2.58
1.674,0.29,0.42,-1.12,1.23
1.684,0.18,0.92,0.64,1.14
1.694,-1.87,-0.00,0.10,1.87
1.704,-2.75,-0.40,-0.73,2.87
1.714,-0.73,-0.19,-0.47,0.89
1.724,0.36,-0.53,-0.22,0.68
1.735,1.30,0.05,0.77,1.51
1.745,0.66,-0.46,0.18,0.83
1.755,-0.19,-0.54,-0.41,0.70
1.765,-0.23,-0.12,-0.34,0.43
1.775,-0.45,-0.80,0.23,0.94
1.785,1.05,1.01,0.82,1.67
1.795,1.63,1.15,-0.30,2.02
1.805,0.61,1.05,-0.74,1.42
1.815,-0.74,0.69,0.37,1.08
1.825,-2.12,-0.13,-0.31,2.14
1.835,-1.98,-0.28,-0.80,2.15
1.846,-0.47,-0.80,0.02,0.93
1.856,0.29,-0.57,0.11,0.65
1.866,0.63,-0.77,0.20,1.01
1.876,1.38,0.29,0.33,1.45
1.886,-0.27,0.08,-0.36,0.46
1.896,-0.57,-0.37,-0.40,0.79
1.906,0.72,0.89,0.58,1.28
1.916,0.97,0.57,0.24,1.15
1.926,0.88,0.51,-0.55,1.15
1.936,0.41,0.70,0.16,0.83
1.946,-0.90,-0.20,0.14,0.93
1.957,-2.02,-0.09,-0.22,2.04
1.967,-1.75,-0.13,-0.89,1.97
1.977,-0.12,0.19,-0.18,0.29
1.987,0.57,-0.14,0.15,0.61
1.997,0.53,-0.71,0.33,0.94
2.007,0.53,0.01,0.32,0.62
2.017,-0.10,-0.37,-0.69,0.79
2.027,-0.78,-0.57,-0.10,0.97
2.037,0.55,0.05,0.64,0.84
2.047,1.33,0.81,0.25,1.58
2.057,1.05,0.93,-0.48,1.48
2.068,0.09,0.15,-0.30,0.35
2.077,-0.91,0.00,0.11,0.91
2.088,-1.78,0.13,0.24,1.80
2.098,-1.55,0.04,-0.59,1.65
2.108,-0.20,-0.19,-0.86,0.91
2.118,0.61,0.23,0.30,0.71
2.128,0.78,-0.40,0.24,0.91
2.138,-0.06,-0.88,0.30,0.94
2.148,-0.48,-0.59,-0.18,0.78
2.158,0.13,-0.26,-0.36,0.47
2.168,0.76,0.59,0.84,1.28
2.178,1.81,1.02,0.07,2.08
2.188,0.65,0.51,-0.92,1.24
2.199,-0.00,0.89,0.43,0.99
2.209,-1.32,-0.10,0.03,1.32
2.219,-2.64,-0.52,-0.31,2.70
2.229,-1.05,0.44,-0.54,1.26
2.239,0.15,-0.43,-0.68,0.82
2.249,0.89,0.03,0.53,1.04
2.259,0.78,-0.57,0.39,1.04
2.269,0.37,-0.48,0.01,0.61
2.279,-0.69,-0.65,-0.37,1.02
2.289,-0.87,-0.89,-0.48,1.34
2.299,1.35,1.34,1.58,2.47
2.309,1.74,0.89,-0.56,2.03
2.320,0.53,0.44,-1.07,1.27
2.330,0.39,1.22,0.95,1.60
2.340,-1.38,-0.10,-0.12,1.39
2.350,-2.49,-0.18,-0.39,2.52
2.360,-1.71,-0.16,-0.94,1.96
2.370,0.14,-0.46,-0.38,0.61
2.380,0.92,-0.11,0.91,1.30
2.390,0.76,-0.66,0.25,1.03
2.400,0.30,-0.25,-0.05,0.40
2.410,-0.02,-0.01,-0.49,0.49
2.420,-0.19,-0.41,-0.16,0.48
2.430,0.97,1.11,1.20,1.90
2.441,1.25,0.86,-0.57,1.62
2.451,0.46,1.02,-0.48,1.22
2.461,-0.41,0.41,0.43,0.72
2.471,-1.71,-0.53,-0.57,1.88
2.481,-2.01,-0.12,-0.04,2.01
2.491,-0.89,-0.59,-0.52,1.19
2.501,0.01,-0.66,-0.31,0.73
2.511,0.96,0.13,0.52,1.10
2.521,1.25,-0.25,0.18,1.29
2.531,-0.02,0.20,-0.08,0.22
2.541,-0.55,-0.19,-0.29,0.65
2.552,0.08,0.08,0.06,0.13
2.562,0.91,0.91,0.58,1.41
2.572,0.84,0.20,-0.43,0.97
2.582,0.87,0.61,-0.07,1.06
2.592,-0.19,0.10,0.13,0.25
2.602,-1.16,-0.16,0.12,1.18
2.612,-2.42,-0.14,-0.37,2.45
2.622,-1.11,-0.12,-1.16,1.61
2.632,0.25,-0.18,0.18,0.36
2.642,0.50,-0.09,0.50,0.71
2.652,0.45,-0.68,0.24,0.85
2.662,0.64,0.12,-0.20,0.68
2.672,-0.56,-0.51,-0.36,0.84
2.683,-0.09,-0.14,0.01,0.16
2.693,1.14,0.49,0.95,1.56
2.703,1.22,0.74,-0.48,1.50
2.713,0.34,0.50,-0.28,0.67
2.723,-0.37,0.54,0.10,0.66
2.733,-1.39,-0.33,-0.24,1.45
2.743,-1.50,0.58,0.24,1.62
2.753,-1.26,-0.69,-1.18,1.86
2.763,0.22,-0.33,-0.29,0.49
2.773,0.73,-0.04,0.74,1.04
2.784,0.35,-1.02,0.19,1.10
2.794,-0.02,-0.14,0.12,0.18
2.804,-0.24,-0.44,-0.63,0.80
2.814,0.27,0.20,0.28,0.43
2.824,1.64,1.13,0.65,2.09
2.834,0.95,0.47,-0.66,1.25
2.844,0.28,0.89,0.01,0.94
2.854,-0.86,0.33,0.15,0.93
2.864,-2.09,-0.37,-0.19,2.13
2.874,-1.65,0.13,-0.44,1.72
2.884,-0.19,-0.18,-0.95,0.98
2.895,0.41,-0.39,0.54,0.78
2.905,0.71,-0.46,0.18,0.87
2.915,0.78,-0.22,0.41,0.91
2.925,-0.40,-0.47,-0.45,0.76
2.935,-0.86,-0.32,-0.34,0.98
2.945,1.03,1.33,0.99,1.95
2.955,1.51,0.78,-0.44,1.75
2.965,0.68,0.49,-0.55,1.00
2.975,0.62,0.74,0.67,1.17
2.985,-1.07,-0.70,-0.36,1.33
2.995,-2.22,-0.80,0.06,2.36
3.005,-1.86,0.09,-0.51,1.93
3.015,-0.17,0.18,-0.85,0.89
3.025,0.57,0.58,0.45,0.93
3.036,0.85,-0.33,0.04,0.91
3.046,0.64,-0.05,0.21,0.67
3.056,-0.22,-0.40,-0.10,0.47
3.066,-0.65,-1.17,-0.47,1.42
3.076,0.24,0.11,0.85,0.89
3.086,1.95,1.46,0.41,2.47
3.096,0.76,0.89,-0.91,1.49
3.106,0.17,1.01,-0.04,1.03
3.116,-0.95,-0.12,-0.12,0.96
3.126,-2.15,-1.10,-0.11,2.42
3.137,-1.22,-0.20,-0.07,1.23
3.147,-0.27,-0.30,-0.55,0.69
3.157,0.32,0.49,0.39,0.71
3.167,1.00,0.60,-0.21,1.18
3.177,0.36,-0.47,-0.32,0.67
3.187,-0.33,-0.27,0.15,0.45
3.197,-0.24,-1.05,0.08,1.08
3.207,0.27,-0.34,0.48,0.64
3.217,1.25,0.87,0.44,1.59
3.227,1.14,1.30,-0.76,1.88
3.237,0.20,0.98,-0.41,1.08
3.247,-0.32,0.63,0.34,0.79
3.257,-2.09,-1.03,-0.23,2.34
3.268,-1.54,-0.53,-0.25,1.65
3.277,-0.06,-0.06,-0.73,0.74
3.288,-0.64,-1.58,0.49,1.77
3.298,0.72,0.87,0.53,1.25
3.308,0.60,-0.01,-0.42,0.73
3.318,-0.25,-0.06,-0.48,0.55
3.328,-0.10,-0.26,0.05,0.28
3.338,0.55,-0.43,0.59,0.91
3.348,1.47,0.83,0.49,1.76
3.358,0.56,0.26,-0.31,0.70
3.368,-0.05,0.79,-0.54,0.96
3.379,-0.59,0.31,-0.01,0.67
3.389,-1.57,0.15,0.14,1.58
3.399,-1.61,-0.29,-0.57,1.74
3.409,-0.16,-0.14,-0.49,0.54
3.419,0.45,-0.18,0.20,0.52
3.429,0.36,-0.80,0.21,0.90
3.439,0.30,-0.03,0.43,0.53
3.449,-0.31,-0.42,-0.62,0.81
3.459,-0.35,0.02,-0.26,0.44
3.469,0.93,0.13,0.76,1.20
3.479,1.66,0.72,0.29,1.84
3.489,0.89,0.75,-0.57,1.29
3.499,-0.59,0.25,-0.13,0.65
3.510,-1.34,0.46,0.13,1.43
3.520,-2.19,0.10,-0.21,2.21
3.530,-0.82,0.25,-0.81,1.17
3.540,0.11,-0.29,-0.22,0.38
3.550,0.86,-0.29,0.22,0.93
3.560,0.95,-0.44,0.48,1.15
3.570,-0.38,-1.03,0.06,1.10
3.580,-1.09,-1.00,-0.56,1.58
3.590,-0.04,0.45,0.11,0.46
3.600,1.26,0.91,0.62,1.67
3.610,1.50,0.99,-0.10,1.81
3.621,1.09,1.06,-0.57,1.63
3.631,0.18,0.23,0.03,0.29
3.641,-1.51,0.13,0.33,1.56
3.651,-2.98,-0.54,-0.20,3.04
3.661,-1.11,-0.63,-1.28,1.81
3.671,0.52,0.54,0.31,0.82
3.681,0.60,-0.31,0.24,0.71
3.691,0.72,-0.70,0.07,1.01
3.701,0.36,0.03,0.32,0.48
3.711,-0.49,-0.92,-0.71,1.26
3.721,-0.53,-0.26,-0.00,0.59
3.731,0.59,0.44,0.89,1.15
3.742,1.97,1.27,0.06,2.35
3.752,0.89,1.21,-0.78,1.69
3.762,-0.20,0.53,-0.12,0.58
3.772,-1.51,-0.28,0.07,1.54
3.782,-2.40,-0.21,-0.03,2.41
3.792,-1.15,-0.43,-0.71,1.42
3.802,-0.07,-0.70,-0.22,0.73
3.812,1.33,-0.05,0.30,1.37
3.822,1.11,-0.18,0.50,1.23
3.832,-0.09,-0.08,-0.10,0.15
3.842,-0.30,-0.47,-0.56,0.79
3.853,-0.60,-0.02,-0.13,0.61
3.863,0.60,0.28,1.04,1.24
3.873,2.04,1.34,-0.21,2.45
3.883,0.93,0.83,-0.43,1.32
3.893,-0.04,0.61,0.20,0.65
3.903,-2.26,-0.37,-0.43,2.33
3.913,-2.43,-0.10,-0.53,2.49
3.923,-0.81,-0.71,-0.43,1.16
3.933,-0.15,-0.49,0.86,1.00
3.943,1.11,0.33,-0.21,1.18
3.953,1.23,-0.33,-0.19,1.28
3.963,-0.18,0.18,0.00,0.26
3.974,-0.55,-1.16,-0.19,1.30
3.984,-0.30,-0.03,-0.05,0.31
3.994,0.73,0.41,1.04,1.34
4.004,1.39,0.68,-0.35,1.58
4.014,0.72,0.73,-0.79,1.30
4.024,0.17,0.66,0.31,0.75
4.034,-1.53,0.50,0.25,1.63
4.044,-2.78,-0.64,-0.67,2.93
4.054,-0.56,0.16,-0.77,0.97
4.064,0.32,-0.44,0.09,0.55
4.074,0.75,-0.53,0.35,0.98
4.085,0.70,-0.44,0.60,1.02
4.094,-0.04,-0.36,-0.31,0.48
4.105,-0.35,0.17,-0.54,0.66
4.115,0.05,-0.56,0.32,0.65
4.125,1.33,1.01,0.64,1.79
4.135,1.32,1.06,-0.21,1.71
4.145,0.20,0.16,-0.63,0.69
4.155,-0.74,0.86,0.32,1.18
4.165,-1.87,-0.09,0.03,1.87
4.175,-1.74,-0.10,-0.79,1.91
4.185,-0.42,-0.15,-0.38,0.59
4.195,0.46,-0.50,-0.11,0.69
4.206,1.00,-0.29,0.76,1.29
4.216,0.31,-0.74,-0.00,0.80
4.226,-0.58,-0.88,-0.33,1.10
4.236,-0.18,0.43,-0.04,0.47
4.246,0.54,0.34,0.45,0.78
4.256,1.36,1.06,0.13,1.73
4.266,1.15,0.89,-0.54,1.56
4.276,0.38,0.21,-0.26,0.50
4.286,-0.70,-0.05,0.46,0.85
4.296,-2.51,-0.73,0.21,2.62
4.306,-1.76,-0.24,-1.09,2.08
4.316,-0.19,0.43,-0.38,0.61
4.327,0.38,0.10,0.12,0.41
4.337,0.84,-0.28,0.20,0.91
4.347,0.78,-0.07,0.43,0.89
4.357,-0.31,-0.78,-0.53,0.99
4.367,-0.71,-0.70,-0.16,1.01
4.377,0.86,0.68,1.18,1.61
4.387,1.52,0.85,-0.21,1.75
4.397,0.89,0.95,-0.85,1.55
4.407,0.12,0.84,0.38,0.93
4.417,-1.32,-0.24,-0.15,1.35
4.427,-2.11,-0.14,0.19,2.12
4.438,-1.91,-0.55,-1.13,2.29
4.448,0.10,-0.34,-0.27,0.45
4.458,1.32,0.28,0.64,1.49
4.468,0.54,-0.55,0.14,0.78
4.478,0.46,0.18,0.12,0.51
4.488,-0.01,-0.18,-0.48,0.51
4.498,-1.00,-0.53,-0.34,1.18
4.508,0.49,0.42,1.05,1.24
4.518,1.78,0.75,0.11,1.93
4.528,1.12,0.73,-0.86,1.59
4.538,0.35,0.81,0.53,1.03
4.548,-1.42,-0.35,-0.34,1.50
4.559,-2.53,-0.06,-0.22,2.54
4.569,-1.49,-0.04,-0.50,1.57
4.579,-0.39,-0.50,-0.39,0.75
4.589,0.73,0.04,0.58,0.93
4.599,1.36,-0.30,-0.14,1.40
4.609,0.40,-0.16,0.29,0.52
4.619,-0.38,-0.51,-0.36,0.74
4.629,-0.73,-0.56,-0.31,0.97
4.639,0.44,0.64,1.05,1.30
4.649,1.30,0.67,-0.29,1.49
4.659,0.85,0.51,-0.68,1.20
4.670,0.58,0.91,0.27,1.11
4.680,-0.75,0.09,0.19,0.78
4.690,-2.05,-0.31,-0.14,2.08
4.700,-1.71,0.09,-0.79,1.88
4.710,-0.45,-0.74,-0.79,1.17
4.720,0.43,-0.31,0.63,0.83
4.730,0.53,-0.47,0.30,0.77
4.740,0.50,-0.60,0.30,0.84
4.750,-0.13,0.16,-0.47,0.51
4.760,-0.17,-0.41,-0.29,0.52
4.770,1.24,0.92,0.88,1.78
4.780,1.34,1.14,-0.10,1.76
4.790,0.44,0.45,-0.58,0.86
4.800,-0.08,1.10,0.39,1.17
4.811,-1.61,-0.73,-0.40,1.81
4.821,-1.81,-0.11,-0.13,1.82
4.831,-1.21,-0.25,-0.63,1.39
4.841,-0.04,-1.03,-0.36,1.09
4.851,0.96,0.31,0.66,1.20
4.861,0.55,-0.88,0.06,1.04
4.871,-0.22,-0.37,-0.08,0.44
4.881,-0.01,0.64,0.05,0.65
4.891,0.19,0.06,-0.29,0.35
4.901,1.04,0.83,0.55,1.44
4.911,1.38,0.86,-0.31,1.65
4.921,0.51,0.07,-0.24,0.57
4.932,-0.61,0.03,0.50,0.79
4.942,-2.00,-0.52,-0.26,2.08
4.952,-2.02,0.04,-0.42,2.07
4.962,-0.48,0.49,-0.89,1.13
4.972,0.30,-0.32,-0.00,0.44
4.982,0.88,-0.05,0.66,1.10
4.992,0.61,-0.43,0.31,0.81
5.002,-0.23,-0.59,-0.42,0.76
5.012,-0.75,-0.45,-0.20,0.90
5.022,0.69,0.39,0.55,0.96
5.032,1.54,1.20,0.29,1.98
5.043,0.82,0.80,-0.63,1.30
5.053,0.32,0.72,-0.19,0.81
5.063,-0.96,-0.11,0.20,0.98
5.073,-1.88,-1.03,-0.11,2.15
5.083,-1.60,-0.51,-0.30,1.71
5.093,0.19,0.76,-0.21,0.81
5.103,0.36,0.40,-0.25,0.59
5.113,0.43,-0.14,-0.11,0.47
5.123,0.48,0.17,0.40,0.64
5.133,-0.15,-0.50,-0.30,0.61
5.143,-0.76,-1.29,-0.09,1.50
5.153,0.30,-0.09,0.81,0.86
5.164,1.76,0.95,0.40,2.03
5.174,1.34,1.34,-0.92,2.10
5.184,0.26,0.89,0.06,0.93
5.194,-0.91,0.13,-0.20,0.94
5.204,-1.96,-0.88,0.01,2.14
5.214,-1.26,-0.25,-0.04,1.29
5.224,-0.96,-0.83,-0.61,1.41
5.234,0.07,0.29,0.22,0.37
5.244,1.05,0.46,-0.03,1.15
5.254,0.28,-0.27,-0.14,0.42
5.264,-0.01,-0.26,0.08,0.27
5.275,-0.32,-0.90,-0.35,1.02
5.285,0.04,-0.29,0.63,0.69
5.295,1.34,0.62,0.68,1.62
5.305,1.05,0.97,-0.65,1.57
5.315,0.32,1.24,-0.66,1.44
5.325,0.14,0.80,0.39,0.90
5.335,-1.70,-0.87,-0.04,1.91
5.345,-1.94,-0.87,-0.33,2.15
5.355,-0.26,-0.17,-0.44,0.54
5.365,-0.63,-0.97,-0.16,1.17
5.375,0.26,0.02,0.64,0.69
5.386,0.98,0.54,-0.47,1.22
5.395,-0.03,-0.08,-0.03,0.09
5.406,0.27,0.00,-0.27,0.38
5.416,0.18,-0.41,0.57,0.72
5.426,1.54,0.79,0.69,1.86
5.436,0.61,0.13,-0.87,1.07
5.446,-0.37,0.54,0.07,0.66
5.456,-0.37,0.60,-0.14,0.72
5.466,-1.69,-0.29,0.06,1.72
5.476,-1.64,0.37,-0.48,1.75
5.486,-0.18,-0.63,-0.80,1.03
5.496,0.67,0.22,0.33,0.78
5.507,0.36,-0.89,0.44,1.05
5.517,0.12,-0.65,0.17,0.68
5.527,-0.09,0.48,-0.18,0.52
5.537,-0.28,-0.42,-0.53,0.73
5.547,0.30,0.29,0.22,0.48
5.557,1.86,1.13,0.95,2.37
5.567,1.04,0.20,-1.02,1.47
5.577,-0.00,0.30,0.17,0.35
5.587,-0.83,0.56,0.39,1.08
5.597,-2.68,-0.39,-0.44,2.74
5.607,-1.41,0.58,-0.87,1.75
5.618,-0.21,-0.29,-0.39,0.53
5.628,0.60,-0.33,0.22,0.72
5.638,1.24,-0.34,0.81,1.52
5.648,0.34,-0.93,-0.17,1.01
5.658,-1.02,-0.52,-0.32,1.19
5.668,-0.51,-0.23,-0.31,0.64
5.678,0.89,0.69,0.63,1.29
5.688,1.62,1.33,0.47,2.15
5.698,1.21,0.81,-0.96,1.74
5.709,0.31,0.63,0.19,0.73
5.719,-1.19,-0.16,0.06,1.20
5.728,-2.59,-0.59,-0.16,2.66
5.739,-1.75,-0.51,-0.72,1.96
5.748,0.52,-0.18,-0.13,0.56
5.759,1.04,0.23,0.23,1.09
5.769,0.57,-0.30,0.34,0.73
5.779,0.53,0.16,-0.16,0.57
5.789,-0.70,-0.46,-0.47,0.96
5.799,-0.93,-0.76,-0.05,1.20
5.809,0.57,0.14,0.61,0.85
5.819,1.78,1.15,0.70,2.23
5.829,1.54,1.30,-0.71,2.13
5.839,0.01,0.35,-0.64,0.73
5.849,-1.35,0.12,0.16,1.37
5.859,-2.48,-0.23,0.25,2.50
5.870,-1.76,-0.73,-0.78,2.06
5.880,0.09,0.02,0.14,0.17
5.890,1.10,-0.25,-0.36,1.19
5.900,1.12,0.09,0.40,1.19
5.910,0.22,-0.34,0.31,0.51
5.920,-0.71,-1.03,-0.64,1.41
5.930,-0.52,-0.14,0.07,0.54
5.940,-0.04,-0.31,0.39,0.50
5.950,1.63,0.89,1.13,2.17
5.960,1.49,1.37,-1.31,2.41
5.970,0.56,0.62,-0.53,0.99
5.980,-1.30,0.59,0.57,1.54
5.991,-2.71,-0.14,-0.67,2.79
6.001,-1.35,-0.56,-0.32,1.50
6.011,-0.37,-0.57,0.32,0.75
6.021,0.68,-0.39,-0.26,0.82
6.031,1.07,-0.74,0.13,1.30
6.041,0.69,0.31,0.38,0.85
6.051,-0.58,-0.88,-0.49,1.16
6.061,-0.35,0.03,0.13,0.37
6.071,1.04,1.07,0.87,1.73
6.081,1.15,0.66,-0.74,1.51
6.091,0.61,1.00,-0.33,1.22
6.102,0.14,0.64,0.35,0.74
6.111,-1.56,-0.18,-0.09,1.58
6.122,-2.13,0.12,-0.04,2.13
6.132,-1.16,-0.53,-1.21,1.76
6.142,0.45,-0.39,-0.00,0.59
6.152,0.86,-0.64,0.60,1.23
6.162,0.22,-0.71,0.35,0.82
6.172,0.32,0.24,0.12,0.42
6.182,-0.20,-0.29,-0.85,0.92
6.192,-0.35,0.14,-0.00,0.38
6.202,1.45,1.11,1.14,2.16
6.212,1.39,0.65,-0.64,1.66
6.222,0.47,0.33,-0.41,0.70
6.232,-0.37,0.33,0.67,0.83
6.243,-1.90,-0.37,-0.37,1.97
6.253,-2.05,-0.15,-0.32,2.08
6.263,-0.74,0.16,-0.75,1.06
6.273,0.04,-0.24,-0.23,0.34
6.283,1.16,0.23,0.83,1.44
6.293,0.64,-0.83,-0.07,1.05
6.303,-0.38,-0.62,-0.17,0.75
6.313,-0.06,0.13,-0.09,0.17
6.323,0.13,-0.23,0.14,0.30
6.333,1.16,1.08,0.68,1.73
6.344,1.36,1.09,-0.62,1.84
6.354,0.30,0.37,-0.41,0.62
6.364,-0.37,0.20,0.30,0.51
6.374,-2.13,-1.32,-0.06,2.51
6.384,-1.70,0.09,-0.19,1.71
6.394,-0.25,0.38,-0.32,0.56
6.404,0.20,0.02,-0.58,0.61
6.414,0.71,0.42,0.38,0.91
6.424,1.03,-0.01,0.15,1.04
6.434,-0.48,-0.69,-0.16,0.86
6.444,-0.94,-1.18,0.06,1.51
6.454,0.26,-0.22,0.07,0.35
6.464,1.47,0.61,0.80,1.78
6.475,1.70,1.20,-0.59,2.17
6.485,0.36,0.84,-0.27,0.95
6.495,-0.66,0.65,0.06,0.93
6.505,-1.90,-0.22,-0.25,1.93
6.515,-2.25,-0.30,-0.29,2.28
6.525,-1.05,-0.41,-0.58,1.27
6.535,0.90,-0.20,0.20,0.95
6.545,0.94,-0.17,0.41,1.04
6.555,0.55,-0.26,0.16,0.63
6.565,0.03,-0.39,-0.46,0.61
6.575,-0.54,-0.35,-0.25,0.69
6.586,-0.88,-0.66,0.01,1.10
6.596,-0.11,-0.32,0.04,0.34
6.606,0.38,-0.39,-0.04,0.55
6.616,0.77,0.25,-0.03,0.81
6.626,-0.03,-0.47,0.06,0.47
6.636,-0.10,-0.32,-0.28,0.43
6.646,-0.20,-0.26,-0.19,0.38
6.656,-0.71,-0.74,-0.04,1.03
6.666,-0.46,-0.67,-0.21,0.84
6.676,-0.23,-1.07,-0.10,1.10
6.686,-0.26,-1.22,-0.35,1.30
6.696,0.90,-0.64,1.04,1.52
6.707,3.55,1.72,2.25,4.54
6.717,4.14,3.13,-1.41,5.38
6.727,1.06,1.47,-1.14,2.15
6.737,-2.00,2.85,0.83,3.58
6.747,-4.79,0.98,-1.68,5.17
6.757,-4.07,-0.64,-0.28,4.13
6.767,-0.74,0.84,0.46,1.21
6.777,0.47,-1.22,-0.84,1.55
6.787,1.97,-0.38,0.71,2.13
6.797,0.51,-0.28,0.52,0.78
6.807,-0.35,-0.69,-0.20,0.80
6.818,0.00,-0.53,-0.70,0.88
6.828,-0.50,-0.92,-0.07,1.05
6.838,0.43,-0.18,0.78,0.91
6.848,2.05,1.28,0.78,2.54
6.858,1.16,0.81,-1.11,1.80
6.868,0.06,1.03,-0.18,1.05
6.878,-1.16,0.33,0.20,1.23
6.888,-2.51,-0.45,-0.35,2.57
6.898,-1.19,0.31,-0.13,1.24
6.908,-0.12,-0.93,-0.78,1.22
6.918,0.66,-0.59,0.31,0.94
6.928,1.05,-0.20,0.55,1.21
6.939,0.25,-0.63,0.02,0.68
6.949,-0.72,0.04,-0.27,0.77
6.959,-0.48,-0.14,-0.05,0.50
6.969,1.09,1.30,0.23,1.71
6.979,1.37,0.76,0.14,1.57
6.989,0.83,0.30,-0.85,1.22
6.999,0.12,0.39,0.73,0.84
7.009,-1.52,-0.67,0.02,1.66
7.019,-2.44,-1.15,-0.57,2.75
7.029,-0.50,0.53,-0.25,0.77
7.039,0.29,0.67,-0.44,0.85
7.049,0.27,-0.19,0.17,0.37
7.060,0.87,0.37,0.37,1.02
7.070,-0.01,-0.16,-0.12,0.20
7.080,-0.62,-0.79,-0.57,1.15
7.090,-0.38,-0.66,0.52,0.92
7.100,1.29,0.47,0.76,1.57
7.110,1.84,0.99,-0.46,2.14
7.120,0.86,0.99,-0.20,1.33
7.130,-0.40,0.45,-0.28,0.66
7.140,-1.80,-0.51,-0.00,1.87
7.150,-1.98,-0.21,-0.02,1.99
7.160,-1.38,-0.59,-0.56,1.60
7.171,-0.22,-0.27,-0.13,0.37
7.181,1.68,0.74,0.16,1.84
7.191,0.66,-0.60,0.12,0.90
7.201,-0.11,0.01,0.21,0.23
7.211,-0.70,-0.74,-0.59,1.17
7.221,-0.65,-0.36,0.08,0.75
7.231,1.11,0.52,0.84,1.48
7.241,1.67,0.69,-0.24,1.83
7.251,1.27,1.36,-0.54,1.93
7.261,0.17,0.58,0.19,0.63
7.271,-1.84,-0.72,-0.33,2.01
7.281,-2.26,-0.70,0.02,2.36
7.292,-0.74,0.13,-0.39,0.85
7.302,-0.31,-0.44,-0.40,0.68
7.312,0.34,-0.08,0.45,0.57
7.322,1.18,0.35,-0.17,1.24
7.332,-0.08,-0.26,-0.10,0.29
7.342,-0.23,-0.39,-0.06,0.46
7.352,-0.04,-0.63,0.17,0.66
7.362,1.25,0.75,0.90,1.72
7.372,1.36,0.52,-0.71,1.62
7.382,0.04,0.78,-0.42,0.89
7.392,-0.30,0.78,0.25,0.87
7.402,-1.15,-0.09,-0.20,1.17
7.412,-1.88,-0.67,0.13,2.00
7.423,-0.61,-0.31,-0.87,1.11
7.433,0.19,0.24,-0.56,0.64
7.443,0.15,-0.10,0.33,0.37
7.453,-0.47,3.00,-2.71,4.07
7.463,0.34,5.15,-1.83,5.48
7.473,1.98,4.32,-1.37,4.94
7.483,-1.90,1.96,-0.01,2.73
7.493,1.69,0.78,-0.63,1.97
7.503,-2.75,-9.19,10.48,14.21
7.513,1.14,2.02,-8.20,8.52
7.524,1.74,-1.69,5.98,6.45
7.533,-1.96,-4.83,2.61,5.83
7.544,0.33,2.29,-3.24,3.98
7.554,-1.35,-0.07,-2.17,2.55
7.564,0.00,-1.14,-3.13,3.33
7.574,0.49,-0.71,3.13,3.25
7.584,-0.35,-2.06,1.28,2.45
7.594,0.29,-0.01,0.61,0.68
7.604,0.83,0.03,-0.41,0.92
7.614,0.13,-0.19,-2.46,2.47
7.624,-0.26,0.06,0.70,0.75
7.634,1.12,0.63,0.97,1.61
7.645,1.10,0.87,0.73,1.58
7.655,0.53,0.65,-0.60,1.02
7.665,-0.59,-0.13,-0.90,1.09
7.675,-1.93,-0.43,-0.24,1.99
7.685,-1.25,0.65,0.37,1.46
7.695,-0.37,-0.29,-0.41,0.62
7.705,0.23,0.09,0.15,0.29
7.715,0.96,0.39,-0.45,1.13
7.725,0.53,-0.40,0.02,0.66
7.735,-0.81,-0.50,0.23,0.98
7.745,-0.59,-1.08,-0.11,1.24
7.755,0.28,-0.26,0.04,0.38
7.765,1.40,0.96,0.69,1.84
7.776,1.21,0.37,-0.35,1.31
7.786,0.73,0.98,-0.68,1.40
7.796,-0.37,0.48,0.59,0.85
7.806,-2.29,0.15,-0.29,2.32
7.816,-2.20,0.06,-0.37,2.23
7.826,-0.46,-0.40,-0.91,1.09
7.836,0.85,-0.05,0.25,0.89
7.846,0.98,-0.41,0.40,1.13
7.856,0.38,-0.55,0.31,0.74
7.866,-0.25,-0.29,-0.25,0.46
7.876,-0.82,-0.81,-0.73,1.36
7.887,-0.45,-0.12,0.36,0.59
7.897,0.81,-0.05,0.67,1.06
7.907,2.17,1.34,0.10,2.56
7.917,1.16,0.90,-0.67,1.61
7.927,-0.45,0.31,-0.19,0.58
7.937,-1.92,0.64,0.29,2.04
7.947,-2.81,-0.35,-0.53,2.88
7.957,-0.50,-0.28,-0.64,0.86
7.967,0.37,-0.39,0.10,0.54
7.977,1.24,-0.54,0.28,1.38
7.988,0.85,-0.18,0.48,0.99
7.997,-0.22,-0.33,-0.33,0.52
8.008,-0.27,-0.53,-0.40,0.72
8.018,-0.56,-0.42,0.17,0.72
8.028,0.86,0.80,0.99,1.54
8.038,1.48,1.01,-0.60,1.89
8.048,0.85,0.92,-0.54,1.37
8.058,-0.51,0.73,0.49,1.01
8.068,-1.90,0.20,-0.10,1.92
8.078,-1.65,-0.14,-1.05,1.96
8.088,-0.61,-0.95,-0.23,1.16
8.098,0.20,-0.48,0.41,0.66
8.108,0.65,-0.71,0.22,0.99
8.118,0.67,-0.16,0.27,0.74
8.129,-0.51,-0.27,-0.57,0.81
8.139,-0.42,-0.32,-0.26,0.59
8.149,1.14,0.67,0.68,1.48
8.159,1.21,0.80,0.16,1.46
8.169,0.71,0.55,-0.20,0.92
8.179,0.24,0.84,-0.37,0.95
8.189,-1.15,0.27,0.44,1.26
8.199,-2.11,0.39,-0.33,2.17
8.209,-1.59,-0.59,-1.21,2.08
8.219,0.41,-0.08,0.01,0.42
8.229,0.70,-0.57,0.39,0.99
8.239,0.53,-0.86,0.55,1.15
8.250,0.23,-0.05,0.12,0.27
8.260,-0.44,0.06,-0.67,0.81
8.270,-0.39,-0.15,-0.31,0.52
8.280,0.99,0.72,0.65,1.39
8.290,1.27,0.73,0.34,1.51
8.300,0.66,0.64,-0.75,1.19
8.310,-0.31,-0.43,0.03,0.54
8.320,-0.90,0.07,0.07,0.91
8.330,-1.47,-0.13,0.33,1.51
8.340,-1.09,0.14,-0.92,1.43
8.350,-0.14,0.24,-0.60,0.66
8.361,0.65,0.40,0.25,0.80
8.371,0.59,-0.20,0.24,0.67
8.381,-0.38,-1.10,0.28,1.20
8.391,-0.16,-0.39,-0.33,0.53
8.401,-0.15,-0.54,-0.28,0.63
8.411,0.98,0.35,0.97,1.42
8.421,1.61,1.07,-0.02,1.93
8.431,0.65,0.87,-0.69,1.29
8.441,-0.06,0.79,0.07,0.79
8.451,-1.47,-0.22,-0.00,1.49
8.461,-2.46,-0.66,-0.20,2.55
8.472,-0.83,0.09,-0.59,1.03
8.482,0.31,-0.28,-0.18,0.45
8.492,0.71,0.01,0.34,0.79
8.502,0.80,-0.40,0.04,0.90
8.512,-0.05,-0.12,0.06,0.15
8.522,-0.87,-0.49,-0.32,1.05
8.532,-0.88,-0.90,-0.26,1.28
8.542,1.16,0.54,0.85,1.54
8.552,2.30,1.11,0.26,2.57
8.562,1.12,0.70,-1.02,1.67
8.572,0.06,0.61,0.48,0.78
8.582,-1.89,0.07,-0.15,1.90
8.592,-2.83,-0.17,-0.34,2.86
8.603,-1.38,-0.46,-0.94,1.73
8.613,0.47,-0.34,0.07,0.58
8.623,1.16,-0.11,0.50,1.27
8.633,0.72,-0.52,0.33,0.95
8.643,0.22,0.08,-0.22,0.32
8.653,-0.26,-0.35,-0.38,0.58
8.663,-0.39,-0.32,-0.06,0.51
8.673,0.74,0.82,1.07,1.54
8.683,1.35,0.78,-0.63,1.68
8.693,0.91,0.88,-0.29,1.30
8.703,-0.12,0.56,0.19,0.60
8.713,-1.58,-0.55,-0.01,1.68
8.724,-1.77,0.32,-0.29,1.82
8.734,-1.15,-0.85,-0.98,1.73
8.744,-0.16,-0.50,-0.03,0.53
8.754,0.56,-0.06,0.69,0.89
8.764,0.93,-0.57,-0.08,1.10
8.774,0.01,-0.05,-0.03,0.06
8.784,-0.26,0.20,-0.24,0.40
8.794,0.47,0.09,0.13,0.49
8.804,1.21,1.09,0.63,1.74
8.814,0.65,0.56,-0.61,1.06
8.825,0.45,0.35,-0.15,0.59
8.834,-0.28,0.51,0.31,0.66
8.845,-1.75,-0.65,-0.07,1.87
8.855,-1.79,-0.18,-0.61,1.91
8.865,-0.60,-0.35,-0.67,0.96
8.875,0.04,-0.45,0.13,0.47
8.885,0.57,-0.17,0.54,0.80
8.895,0.56,-0.08,0.23,0.61
8.905,0.11,0.29,-0.49,0.59
8.915,-0.61,-0.53,-0.40,0.91
8.925,0.42,0.08,0.48,0.65
8.935,1.48,0.69,0.58,1.73
8.945,0.98,0.42,-0.50,1.18
8.956,0.45,0.69,0.07,0.83
8.966,-0.87,0.13,-0.24,0.91
8.976,-1.59,-0.20,-0.03,1.60
8.986,-1.61,0.24,-0.26,1.65
8.996,-0.82,-0.61,-0.86,1.34
9.006,0.75,0.28,0.39,0.89
9.016,0.72,-0.27,0.12,0.78
9.026,0.15,-0.73,0.25,0.78
9.036,-0.19,0.19,-0.08,0.28
9.046,-0.22,-0.53,-0.68,0.89
9.056,0.70,0.38,0.78,1.12
9.066,1.27,0.65,0.38,1.47
9.077,0.78,0.53,-0.74,1.20
9.087,0.36,0.74,0.02,0.82
9.097,-1.19,-0.30,0.13,1.24
9.107,-2.31,-0.65,-0.23,2.41
9.117,-1.10,0.20,-0.33,1.17
9.127,-0.03,-0.09,-0.59,0.60
9.137,0.34,-0.08,0.09,0.36
9.147,0.75,-0.22,0.24,0.82
9.157,0.23,-0.23,0.28,0.43
9.167,-0.53,-0.25,-0.26,0.64
9.177,-0.63,-0.48,-0.37,0.88
9.187,0.88,0.43,0.76,1.23
9.198,2.03,1.22,0.20,2.38
9.208,0.82,0.18,-0.65,1.06
9.218,0.24,0.69,0.06,0.73
9.228,-1.10,-0.33,0.09,1.15
9.238,-2.43,-0.63,-0.11,2.51
9.248,-1.81,-0.33,-0.63,1.95
9.258,0.19,0.28,-0.56,0.65
9.268,0.62,0.45,0.40,0.86
9.278,1.05,-0.43,0.13,1.14
9.288,0.61,0.29,0.08,0.68
9.298,-0.68,-0.46,-0.19,0.84
9.308,-0.68,-0.87,-0.44,1.19
9.319,0.37,0.44,1.19,1.33
9.329,1.79,0.94,-0.08,2.03
9.339,1.12,0.95,-0.89,1.71
9.349,0.22,0.64,0.22,0.71
9.359,-1.43,-0.64,-0.24,1.58
9.369,-1.62,-0.38,0.22,1.68
9.379,-1.24,-0.38,-0.37,1.34
9.389,-0.75,-0.81,-0.77,1.34
9.399,0.61,1.01,0.78,1.41
9.409,0.69,0.05,-0.41,0.80
9.420,0.50,-0.08,-0.06,0.50
9.430,0.01,0.04,0.10,0.11
9.440,0.06,-0.84,-0.07,0.84
9.450,0.52,0.01,0.46,0.70
9.460,0.83,0.47,0.31,1.00
9.470,0.65,1.05,-0.77,1.45
9.480,0.10,0.92,0.25,0.95
9.490,-0.91,-0.19,-0.45,1.04
9.500,-1.67,-0.92,-0.02,1.91
9.510,-0.98,0.18,-0.23,1.02
9.520,-0.27,-0.65,-0.44,0.83
9.530,0.03,-0.49,0.27,0.56
9.540,0.61,0.57,0.35,0.91
9.551,0.31,0.16,-0.50,0.61
9.561,-0.29,-0.01,-0.28,0.40
9.571,-0.04,-0.52,0.26,0.59
9.581,1.13,0.03,0.59,1.27
9.591,1.25,0.74,0.25,1.48
9.601,0.15,-0.12,-0.84,0.86
9.611,-0.16,0.55,-0.04,0.58
9.621,-0.77,0.33,0.45,0.96
9.631,-1.72,-0.10,-0.26,1.74
9.641,-1.00,0.39,-0.98,1.46
9.651,0.08,0.28,-0.25,0.39
9.661,0.44,-0.29,0.23,0.58
9.672,0.39,-0.77,0.49,1.00
9.682,0.43,-0.25,0.13,0.51
9.692,-0.51,-0.69,-0.62,1.05
9.702,-0.31,-0.05,0.09,0.32
9.712,0.53,0.11,0.53,0.76
9.722,1.57,1.05,0.13,1.90
9.732,0.96,0.77,-0.54,1.34
9.742,-0.20,0.53,-0.03,0.57
9.752,-1.70,0.15,0.19,1.72
9.762,-2.36,-0.22,-0.60,2.45
9.772,-0.40,0.09,-0.39,0.57
9.783,0.28,-0.36,-0.24,0.52
9.793,0.75,-0.42,0.52,1.00
9.803,0.91,-0.19,0.14,0.94
9.813,-0.52,-0.66,-0.19,0.86
9.823,-1.16,-0.28,-0.37,1.25
9.833,-0.42,-0.71,-0.15,0.84
9.843,1.38,0.75,0.72,1.73
9.853,1.99,1.03,0.64,2.33
9.863,1.01,0.48,-1.16,1.61
9.873,0.12,0.65,0.10,0.67
9.883,-1.90,0.14,0.18,1.91
9.893,-2.72,-0.11,-0.15,2.72
9.904,-1.14,-0.64,-1.23,1.79
9.914,0.73,0.09,0.38,0.83
9.924,1.21,-0.09,0.27,1.24
9.934,0.59,-0.68,0.09,0.90
9.944,0.07,-0.05,0.25,0.27
9.954,-1.01,-0.85,-0.82,1.55
9.964,-0.73,0.01,0.25,0.77
9.974,0.62,0.34,0.47,0.85
9.984,1.98,1.06,0.20,2.25
9.994,1.21,1.07,-0.66,1.75
10.004,0.10,0.19,-0.04,0.22
10.014,-1.15,0.40,0.25,1.24
10.025,-2.88,-0.21,-0.21,2.89
10.035,-1.28,-0.93,-1.11,1.93
10.045,0.31,0.14,0.16,0.38
10.055,1.09,-0.43,0.31,1.21
10.065,0.86,-0.70,0.32,1.16
10.075,0.05,0.05,0.19,0.21
10.085,-0.39,-0.57,-0.84,1.09
10.095,-0.66,-0.36,-0.07,0.76
10.105,0.92,0.89,1.19,1.75
10.115,1.36,0.44,-0.53,1.52
10.125,1.05,1.27,-0.35,1.68
10.135,-0.33,0.88,0.47,1.05
10.146,-2.10,-0.02,-0.52,2.16
10.156,-1.71,0.25,-0.58,1.82
10.166,-0.76,-1.04,-0.65,1.44
10.176,0.38,-0.30,0.69,0.85
10.186,0.73,-0.60,0.20,0.97
10.196,0.66,-0.38,0.02,0.76
10.206,-0.30,0.10,-0.23,0.40
10.216,-0.51,-0.42,-0.45,0.80
10.226,0.41,0.45,0.56,0.83
10.236,1.24,0.62,0.54,1.49
10.247,0.85,0.46,-0.75,1.22
10.256,0.63,0.77,0.16,1.01
10.267,-0.23,0.49,0.09,0.55
10.277,-2.32,-0.41,-0.14,2.36
10.287,-1.73,0.07,-0.82,1.92
10.297,-0.07,-0.13,-0.36,0.39
10.307,0.23,0.01,0.16,0.28
10.317,0.59,-0.84,0.59,1.18
10.327,0.93,0.13,-0.04,0.94
10.337,-0.50,-0.33,-0.40,0.72
10.347,-0.40,-0.36,-0.28,0.61
10.357,0.26,-0.01,0.59,0.64
10.368,1.19,0.76,0.47,1.48
10.377,1.38,1.01,-0.59,1.81
10.388,0.01,0.44,-0.23,0.50
10.398,-1.09,-0.12,-0.23,1.12
10.408,-1.58,-0.07,0.32,1.62
10.418,-1.45,0.02,-0.55,1.55
10.428,-0.40,-0.62,-0.15,0.76
10.438,0.83,0.44,-0.45,1.05
10.448,0.55,-0.41,0.58,0.90
10.458,0.27,-0.03,-0.05,0.27
10.468,-1.09,-1.07,-0.06,1.53
10.478,-0.24,-0.35,-0.61,0.74
10.489,0.77,0.28,0.91,1.22
10.499,1.77,0.85,0.44,2.01
10.509,1.43,0.77,-0.88,1.85
10.519,0.08,0.63,-0.02,0.64
10.529,-1.16,0.03,0.03,1.16
10.539,-2.57,-0.75,-0.12,2.68
10.549,-1.61,-0.20,-0.52,1.70
10.559,0.27,0.07,-0.31,0.42
10.569,0.84,0.19,0.17,0.88
10.579,0.58,-0.36,0.12,0.69
10.589,0.33,-0.05,0.20,0.39
10.599,-0.38,-0.46,-0.46,0.76
10.610,-1.03,-0.86,-0.17,1.36
10.620,0.94,0.66,1.05,1.56
10.630,1.83,1.02,-0.02,2.10
10.640,0.93,0.54,-0.99,1.46
10.650,0.30,0.65,0.21,0.75
10.660,-1.16,0.09,0.35,1.22
10.670,-2.18,-0.04,-0.02,2.18
10.680,-1.96,-0.77,-1.47,2.57
10.690,0.08,0.05,0.02,0.10
10.700,0.96,0.28,0.44,1.09
10.710,0.46,-1.17,0.01,1.26
10.720,0.59,0.40,0.65,0.96
10.731,0.07,-0.45,-0.75,0.88
10.741,-0.52,-0.41,-0.34,0.74
10.751,0.63,1.12,1.22,1.77
10.761,1.20,0.41,-0.41,1.33
10.771,0.73,0.93,-0.55,1.30
10.781,-0.15,0.51,0.40,0.66
10.791,-1.16,-0.39,-0.20,1.24
10.801,-1.81,0.18,-0.01,1.82
10.811,-1.35,-0.63,-0.99,1.79
10.821,-0.11,-0.45,-0.26,0.53
10.831,0.45,-0.04,0.65,0.79
10.842,0.81,-0.44,0.06,0.92
10.852,0.33,0.15,0.10,0.38
10.862,-0.39,-0.17,-0.43,0.60
10.872,0.10,0.13,-0.14,0.21
10.882,0.99,0.81,0.87,1.55
10.892,0.94,0.37,-0.53,1.14
10.902,0.64,0.44,-0.13,0.78
10.912,0.23,0.60,0.30,0.71
10.922,-1.26,-0.59,-0.13,1.39
10.932,-2.01,-0.08,-0.30,2.04
10.942,-1.09,0.03,-0.75,1.32
10.953,-0.02,-0.08,-0.27,0.28
10.963,0.30,-0.16,0.53,0.63
10.973,0.84,-0.36,0.22,0.94
10.983,0.34,-0.07,-0.14,0.37
10.993,-0.26,-0.03,-0.21,0.34
11.003,-0.46,-0.66,-0.32,0.86
11.013,0.68,0.22,0.91,1.16
11.023,1.60,0.84,-0.11,1.81
11.033,0.41,0.01,-0.52,0.66
11.043,0.00,0.84,0.20,0.86
11.053,-1.27,-0.28,-0.23,1.32
11.063,-1.79,0.38,0.05,1.83
11.074,-1.39,-0.23,-0.84,1.64
11.084,0.16,-0.54,-0.61,0.83
11.094,0.80,0.14,0.82,1.15
11.104,0.38,-0.82,0.18,0.93
11.114,-0.04,-0.32,0.04,0.32
11.124,-0.35,-0.03,-0.36,0.50
11.134,0.34,0.12,-0.21,0.41
11.144,1.35,0.70,0.91,1.77
11.154,1.29,0.67,-0.32,1.49
11.164,0.36,0.46,-0.38,0.70
11.174,-0.59,0.24,0.24,0.68
11.184,-2.13,-0.54,-0.19,2.20
11.194,-1.80,-0.29,-0.32,1.85
11.204,-0.26,0.32,-0.64,0.77
11.215,0.36,-0.34,-0.21,0.54
11.225,0.79,-0.18,0.45,0.93
11.235,0.49,-0.11,0.47,0.69
11.245,-0.39,-0.55,-0.53,0.86
11.255,-0.83,0.05,-0.21,0.86
11.265,0.67,0.38,0.52,0.93
11.275,1.79,1.01,0.18,2.06
11.285,1.02,0.63,-0.36,1.25
11.295,0.15,0.19,-0.17,0.30
11.305,-0.55,0.00,0.13,0.57
11.315,-2.02,-1.07,0.07,2.29
11.326,-2.08,-0.66,-0.72,2.30
11.336,-0.09,0.78,-0.11,0.80
11.346,0.24,0.44,-0.41,0.65
11.356,0.78,-0.24,0.30,0.86
11.366,1.01,0.58,0.45,1.24
11.376,-0.01,-0.43,-0.51,0.66
11.386,-0.63,-0.67,-0.02,0.92
11.396,-0.10,-0.34,0.47,0.59
11.406,1.58,0.78,0.27,1.79
11.416,0.99,1.16,-0.36,1.57
11.426,-0.04,0.28,-0.37,0.47
11.437,-0.74,0.06,-0.02,0.74
11.446,-1.70,-0.62,0.10,1.82
11.457,-1.22,-0.23,-0.29,1.27
11.467,-0.59,-0.21,-0.59,0.86
11.477,0.18,0.22,0.18,0.34
11.487,0.73,0.31,0.05,0.79
11.497,0.44,-0.05,-0.01,0.44
11.507,-0.10,-0.32,-0.21,0.40
11.517,-0.41,-0.94,0.00,1.03
11.527,0.50,-0.04,0.48,0.70
11.537,1.23,0.25,0.40,1.32
11.547,0.84,1.02,-0.72,1.50
11.558,0.49,1.27,0.11,1.36
11.568,-0.45,0.15,-0.21,0.51
11.578,-1.69,-0.76,-0.19,1.86
11.588,-1.40,-0.19,0.03,1.42
11.598,-0.53,-0.23,-0.74,0.93
11.608,-0.25,-0.59,0.17,0.66
11.618,0.93,0.52,0.43,1.14
11.628,0.51,0.05,-0.36,0.63
11.638,0.08,0.14,0.03,0.17
11.648,-0.53,-0.59,-0.36,0.87
11.658,0.00,-0.52,0.41,0.66
11.668,1.66,0.54,0.65,1.86
11.679,0.47,0.15,-0.56,0.75
11.688,-0.11,0.50,-0.22,0.56
11.699,-0.15,0.75,-0.13,0.78
11.709,-1.65,0.28,0.33,1.71
11.719,-1.59,-0.07,-0.79,1.78
11.729,-0.10,-0.28,-0.72,0.77
11.739,0.32,-0.03,0.39,0.51
11.749,0.62,-0.88,0.26,1.11
11.759,-0.00,-0.59,0.30,0.66
11.769,-0.36,-0.28,-0.35,0.58
11.779,-0.02,0.07,-0.47,0.47
11.789,0.34,0.19,0.48,0.61
11.800,1.50,0.81,0.46,1.76
11.810,1.23,0.71,-0.58,1.54
11.820,0.12,0.36,0.07,0.38
11.830,-1.26,0.12,-0.06,1.27
11.840,-2.56,-0.47,-0.18,2.60
11.850,-0.98,0.57,-0.54,1.25
11.860,0.04,-0.32,-0.49,0.58
11.870,0.80,-0.05,0.21,0.83
11.880,1.28,0.17,0.65,1.45
11.890,-0.16,-0.81,-0.42,0.93
11.900,-1.24,-0.21,-0.20,1.27
11.910,-0.64,-0.63,-0.21,0.93
11.920,1.01,0.44,0.35,1.15
11.931,1.74,0.96,0.79,2.14
11.941,1.26,0.46,-0.96,1.65
11.951,0.56,0.43,-0.00,0.71
11.961,-1.21,0.30,0.34,1.29
11.971,-3.14,-0.57,-0.30,3.21
11.981,-1.54,-0.23,-1.03,1.86
11.991,0.56,0.28,-0.13,0.64
12.001,0.84,-0.23,0.26,0.91
12.011,0.86,-0.37,0.35,1.00
12.021,0.31,-0.47,0.10,0.57
12.031,-0.65,-0.49,-0.70,1.07
12.041,-0.74,-0.34,0.15,0.83
12.052,0.37,0.03,0.36,0.52
12.062,1.77,1.18,0.61,2.21
12.072,1.17,1.25,-0.81,1.90
12.082,0.13,0.46,-0.38,0.61
12.092,-1.08,0.45,0.45,1.25
12.102,-2.64,-0.36,-0.35,2.69
12.112,-1.43,-0.87,-0.78,1.85
12.122,0.23,-0.03,0.09,0.25
12.132,0.85,-0.45,0.05,0.96
12.142,1.05,-0.27,0.48,1.18
12.152,-0.05,-0.17,-0.17,0.25
12.163,-0.57,-0.44,-0.58,0.92
12.172,-0.36,-0.23,0.15,0.45
12.183,0.81,0.52,0.76,1.22
12.193,1.69,1.25,-0.11,2.11
12.203,0.96,0.60,-0.53,1.25
12.213,0.09,0.58,-0.17,0.61
12.223,-1.87,0.14,0.56,1.96
12.233,-2.20,-0.42,-0.96,2.44
12.243,-0.72,-0.19,-0.60,0.96
12.253,-0.01,-0.15,0.53,0.55
12.263,0.89,-0.36,-0.13,0.96
12.273,0.99,0.06,0.26,1.03
12.284,-0.14,-0.20,-0.04,0.25
12.294,-0.63,-0.80,-0.60,1.19
12.304,-0.44,-0.16,0.17,0.50
12.314,0.96,0.36,0.71,1.25
12.324,1.21,0.72,-0.05,1.41
12.334,0.65,0.69,-0.56,1.10
12.344,0.21,0.88,-0.44,1.00
12.354,-1.68,0.20,0.65,1.81
12.364,-2.25,-0.50,-0.67,2.40
12.374,-0.71,-0.19,-0.69,1.01
12.384,0.33,-0.06,0.12,0.36
12.395,0.70,-0.53,0.31,0.92
12.405,0.73,-0.18,0.14,0.76
12.415,-0.27,-0.55,-0.24,0.66
12.425,-0.25,-0.01,-0.27,0.37
12.435,-0.15,-0.49,0.06,0.52
12.445,1.06,0.45,0.75,1.38
12.455,1.46,1.18,-0.14,1.88
12.465,0.50,0.40,-0.75,0.98
12.475,-0.55,0.08,0.06,0.56
12.485,-1.53,-0.12,0.26,1.56
12.495,-1.94,0.06,-0.19,1.95
12.506,-0.52,0.00,-0.92,1.06
12.516,0.28,-0.09,-0.21,0.36
12.526,0.74,0.13,0.51,0.90
12.536,0.71,-0.55,0.07,0.90
12.546,-0.74,-0.81,-0.01,1.10
12.556,-0.29,-0.10,-0.13,0.33
12.566,0.45,0.08,-0.01,0.46
12.576,1.36,0.94,0.82,1.85
12.586,1.32,0.80,-0.79,1.73
12.596,0.45,0.34,-0.26,0.62
12.606,-0.40,0.18,0.48,0.65
12.616,-2.34,-1.20,-0.27,2.64
12.627,-2.09,-0.14,-0.38,2.13
12.637,-0.15,0.66,-0.45,0.81
12.647,0.15,-0.53,-0.58,0.80
12.657,0.95,0.38,0.68,1.23
12.667,1.02,-0.15,0.31,1.08
12.677,-0.23,-0.46,-0.47,0.69
12.687,-0.78,-0.34,0.06,0.85
12.697,0.33,0.23,0.36,0.54
12.707,1.32,0.85,0.18,1.58
12.717,1.11,0.68,-0.62,1.44
12.727,0.34,0.45,0.18,0.59
12.738,-0.70,0.15,0.20,0.75
12.747,-2.18,-0.27,-0.24,2.21
12.757,-2.20,-0.47,-1.10,2.51
12.768,-0.08,-0.03,-0.08,0.12
12.778,0.67,0.02,0.28,0.73
12.788,1.09,-0.26,0.42,1.19
12.798,0.71,0.06,0.06,0.71
12.808,-0.39,-0.28,-0.58,0.75
12.818,-0.52,-0.45,-0.32,0.76
12.828,0.23,0.17,1.03,1.07
12.838,1.27,0.86,0.09,1.54
12.848,1.41,1.06,-0.67,1.89
12.858,0.31,0.68,0.06,0.76
12.869,-1.28,-0.41,-0.05,1.35
12.879,-1.94,0.01,-0.23,1.95
12.889,-1.77,-0.33,-0.41,1.85
12.899,-0.37,-0.56,-0.43,0.80
12.909,0.93,0.14,0.31,1.00
12.919,1.19,-0.18,0.07,1.20
12.929,0.61,0.37,0.38,0.80
12.939,-0.76,-0.59,-0.55,1.11
12.949,-0.72,-0.41,-0.45,0.94
12.959,0.35,0.22,0.77,0.87
12.969,1.29,0.41,0.33,1.39
12.980,0.88,0.40,-0.54,1.11
12.989,0.74,0.69,-0.11,1.02
13.000,-0.98,0.17,0.08,1.00
13.010,-2.08,-0.19,0.01,2.09
13.020,-1.60,-0.11,-0.78,1.79
13.030,-0.28,-0.50,-0.55,0.80
13.040,0.68,0.24,0.38,0.81
13.050,0.43,-0.67,0.37,0.88
13.060,0.48,-0.12,-0.05,0.49
13.070,-0.11,0.06,-0.18,0.22
13.080,-0.41,-0.60,-0.50,0.89
13.091,0.71,0.37,0.82,1.14
13.101,1.43,0.66,0.17,1.58
13.111,0.60,0.24,-0.77,1.00
13.121,0.17,0.95,0.51,1.10
13.131,-1.22,-0.22,-0.43,1.31
13.141,-1.75,-0.04,0.12,1.76
13.151,-1.40,0.22,-0.77,1.61
13.161,-0.34,-0.96,-0.63,1.19
13.171,0.78,0.59,0.69,1.20
13.181,0.70,-0.61,0.08,0.93
13.191,-0.08,-0.80,0.06,0.80
13.201,-0.28,0.25,-0.32,0.50
13.211,-0.03,-0.33,-0.11,0.35
13.222,1.14,0.92,0.85,1.70
13.232,1.26,0.66,-0.33,1.46
13.242,0.75,0.46,-0.66,1.10
13.252,-0.10,0.39,0.43,0.58
13.262,-1.95,-0.92,-0.07,2.15
13.272,-1.70,0.34,0.04,1.73
13.282,-0.92,0.10,-1.00,1.37
13.292,-0.16,-0.33,-0.71,0.80
13.302,0.96,0.44,0.91,1.39
13.312,0.82,-0.69,0.13,1.08
13.323,-0.01,-0.23,0.09,0.25
13.332,-0.56,-0.17,-0.16,0.61
13.343,0.07,0.05,-0.35,0.36
13.353,1.14,1.02,0.84,1.75
13.363,1.04,0.48,-0.52,1.25
13.373,0.48,0.32,-0.25,0.63
13.385,-0.20,0.23,0.58,0.66
13.393,-1.69,-1.07,-0.32,2.03
13.403,-1.92,0.01,-0.72,2.05
13.416,-0.66,0.32,-0.46,0.86
13.423,0.16,0.37,0.10,0.41
