time,ax,ay,az,atotal
0.000,-0.23,0.11,-2.59,2.60
0.010,-0.36,0.12,3.42,3.44
0.020,0.52,-1.01,2.99,3.20
0.030,1.11,0.37,1.50,1.91
0.041,0.99,0.30,-0.74,1.27
0.050,0.42,0.71,-3.43,3.52
0.061,-0.42,0.76,-0.50,1.00
0.071,-1.10,0.62,1.46,1.93
0.081,-2.12,-0.27,0.98,2.35
0.091,-0.88,-0.23,-0.58,1.07
0.101,0.30,0.13,-1.28,1.32
0.111,0.46,-1.03,-0.48,1.23
0.121,0.35,-0.13,0.99,1.06
0.131,-0.07,-0.52,0.64,0.82
0.141,-0.55,-0.28,-0.53,0.81
0.151,0.02,0.34,-0.14,0.37
0.161,1.21,0.26,0.03,1.24
0.172,1.72,1.09,0.12,2.04
0.182,0.47,0.48,0.03,0.67
0.192,-1.00,0.31,0.10,1.05
0.202,-2.08,0.34,-0.20,2.12
0.212,-1.96,-0.18,-0.98,2.20
0.222,-0.37,0.36,-0.46,0.69
0.232,0.52,-0.36,0.50,0.81
0.242,0.98,-0.50,0.01,1.10
0.252,0.54,-0.46,0.36,0.79
0.262,-0.86,-1.33,-0.10,1.59
0.273,-0.71,-0.25,-0.46,0.88
0.283,0.19,0.31,0.41,0.55
0.293,1.21,1.06,0.48,1.68
0.303,1.75,1.18,-0.39,2.15
0.313,0.87,1.00,-0.75,1.53
0.323,-0.60,0.44,-0.26,0.79
0.333,-2.54,-0.63,1.88,3.22
0.343,-2.16,0.54,-1.89,2.91
0.353,-0.85,-1.91,-0.54,2.16
0.363,1.04,1.60,0.35,1.94
0.373,0.50,-1.33,-0.01,1.42
0.383,0.68,-0.27,0.31,0.79
0.393,0.01,0.25,0.21,0.33
0.403,-1.05,-1.70,-0.74,2.13
0.414,-0.63,0.30,-0.01,0.70
0.424,1.34,0.59,1.14,1.85
0.434,1.86,1.62,-0.41,2.50
0.444,0.82,1.01,-0.55,1.41
0.454,-0.22,0.40,-0.12,0.48
0.464,-2.63,0.03,0.19,2.64
0.474,-2.55,-0.74,-0.67,2.73
0.484,-0.39,-0.43,-0.26,0.64
0.494,0.27,-0.48,0.25,0.60
0.504,1.64,0.09,0.01,1.64
0.515,0.68,0.09,0.43,0.81
0.525,-0.29,-0.43,-0.65,0.83
0.534,-0.51,-0.59,-0.18,0.80
0.545,-0.86,-0.37,0.24,0.97
0.555,1.10,0.50,1.07,1.61
0.565,1.67,1.37,-0.65,2.26
0.575,0.88,0.79,-0.36,1.24
0.585,-0.14,1.20,0.03,1.21
0.595,-2.82,0.06,-0.04,2.83
0.605,-2.21,-0.75,-1.12,2.59
0.615,-0.68,-0.73,0.23,1.02
0.626,0.07,-0.30,0.38,0.49
0.635,1.33,-0.50,-0.08,1.42
0.646,0.77,-0.02,0.08,0.78
0.656,-0.28,-0.38,-0.15,0.49
0.666,-0.50,-0.72,-0.54,1.02
0.676,-0.66,0.02,0.52,0.84
0.686,0.95,0.66,0.72,1.37
0.696,1.39,0.82,-0.24,1.63
0.706,0.89,0.84,-0.78,1.45
0.716,0.09,0.45,0.24,0.51
0.726,-2.24,0.61,0.29,2.34
0.736,-2.75,-0.38,-0.80,2.89
0.746,-0.21,-0.08,-0.75,0.78
0.757,0.41,-0.62,0.04,0.75
0.767,0.94,-0.52,0.80,1.34
0.777,0.45,-0.46,0.36,0.73
0.787,-0.29,-0.32,-0.68,0.81
0.797,-0.35,-0.18,-0.30,0.49
0.807,0.02,-0.23,0.24,0.33
0.817,1.53,1.15,0.95,2.14
0.827,1.29,0.89,-0.54,1.66
0.837,-0.06,0.49,-0.59,0.77
0.847,-0.90,1.13,0.56,1.54
0.858,-2.17,-0.00,-0.36,2.20
0.867,-1.38,0.19,-0.86,1.64
0.878,-0.37,-0.48,-0.12,0.62
0.888,0.51,-0.76,0.05,0.91
0.898,0.71,-0.70,0.54,1.14
0.908,0.20,-0.64,0.29,0.73
0.918,-0.77,-0.79,-0.78,1.35
0.928,-0.12,-0.09,-0.10,0.18
0.938,0.82,0.68,0.89,1.39
0.948,1.29,1.00,0.10,1.64
0.958,1.16,1.05,-0.78,1.75
0.968,0.40,0.68,0.01,0.79
0.978,-1.51,0.01,0.24,1.53
0.988,-2.77,-0.29,-0.13,2.79
0.999,-1.33,-0.37,-1.04,1.73
1.009,0.11,0.18,0.02,0.21
1.019,0.57,-0.39,0.16,0.71
1.029,0.98,-0.61,0.21,1.17
1.039,0.41,0.04,0.25,0.48
1.049,-0.87,-1.13,-0.34,1.46
1.059,-0.52,-0.14,-0.25,0.60
1.069,1.36,0.87,1.20,2.01
1.079,1.39,1.15,-0.67,1.92
1.089,0.73,0.92,-0.51,1.28
1.099,0.08,0.74,0.33,0.81
1.110,-2.02,-0.06,-0.10,2.03
1.119,-2.41,-0.46,-0.17,2.46
1.130,-1.27,-0.74,-1.22,1.91
1.140,0.58,0.22,0.48,0.78
1.150,1.05,-0.09,0.31,1.10
1.160,0.78,-0.57,0.15,0.98
1.170,0.17,0.37,-0.05,0.41
1.180,-0.68,-0.78,-0.54,1.17
1.190,-0.81,-0.30,-0.07,0.87
1.200,0.93,0.59,1.27,1.68
1.210,1.74,0.91,-0.68,2.08
1.220,1.04,0.73,-0.41,1.33
1.231,0.20,0.89,0.54,1.06
1.241,-2.19,-0.19,-0.42,2.23
1.251,-2.62,-0.10,-0.29,2.64
1.261,-1.09,-0.29,-0.90,1.44
1.271,-0.11,-0.53,0.20,0.58
1.281,1.13,-0.18,0.52,1.25
1.291,0.98,-0.55,-0.05,1.12
1.301,0.03,-0.02,0.14,0.15
1.311,-0.58,-0.58,-0.65,1.04
1.321,-0.79,-0.42,-0.02,0.89
1.331,0.74,0.88,1.03,1.54
1.342,1.49,0.95,-0.16,1.77
1.351,0.94,0.83,-0.82,1.50
1.362,0.17,0.52,0.17,0.57
1.372,-1.17,0.31,0.29,1.25
1.382,-2.78,-0.68,-0.16,2.87
1.392,-1.08,-0.29,-1.25,1.68
1.402,-0.04,-0.51,0.07,0.52
1.412,0.60,-0.25,0.52,0.83
1.422,0.75,-0.62,0.21,1.00
1.432,0.07,-0.07,0.00,0.10
1.442,-0.43,-0.14,-0.50,0.67
1.452,-0.31,-0.50,-0.15,0.61
1.462,1.19,1.12,1.23,2.05
1.473,1.51,0.85,-0.46,1.80
1.483,0.64,0.84,-0.62,1.22
1.493,-0.32,1.02,0.54,1.20
1.503,-2.16,-0.74,-0.60,2.36
1.513,-1.89,0.20,-0.01,1.90
1.523,-1.09,-0.61,-0.72,1.44
1.533,0.12,-0.83,-0.21,0.87
1.543,1.42,0.16,0.73,1.60
1.553,0.49,-0.97,0.02,1.09
1.563,-0.66,-0.09,-0.05,0.67
1.573,-0.13,0.53,-0.08,0.55
1.583,-0.14,-0.08,-0.34,0.37
1.594,1.00,0.63,0.78,1.42
1.603,1.88,1.06,-0.47,2.21
1.614,0.54,0.21,-0.10,0.59
1.624,-0.89,0.07,0.56,1.05
1.634,-2.35,-0.28,-0.43,2.41
1.644,-2.41,-0.10,-0.76,2.53
1.654,-0.10,0.49,-0.39,0.63
1.664,0.36,-0.55,0.13,0.67
1.674,1.09,0.02,0.50,1.20
1.684,0.86,-0.26,0.09,0.90
1.694,-0.89,-0.93,-0.49,1.37
1.705,-0.74,-0.32,-0.03,0.80
1.715,0.48,0.43,0.63,0.90
1.725,1.42,1.35,0.43,2.01
1.735,1.22,0.77,-0.99,1.75
1.745,0.46,0.70,-0.21,0.87
1.755,-1.21,-0.06,0.46,1.30
1.765,-2.48,-1.21,-0.19,2.76
1.775,-1.87,-0.19,-0.37,1.92
1.785,0.34,0.60,-0.38,0.79
1.795,0.91,0.39,-0.08,0.99
1.805,0.55,-0.08,0.17,0.58
1.815,0.42,-0.12,0.26,0.51
1.826,-0.51,-0.37,-0.45,0.77
1.836,-1.18,-1.42,-0.08,1.85
1.846,0.10,-0.03,0.86,0.87
1.856,2.00,1.18,0.20,2.33
1.866,1.65,1.32,-0.72,2.23
1.876,0.43,0.94,0.02,1.04
1.886,-1.18,0.19,-0.19,1.21
1.896,-2.33,-0.42,0.08,2.36
1.906,-1.86,-0.82,-0.47,2.08
1.916,-0.81,-0.57,-0.44,1.08
1.926,0.44,0.16,0.54,0.72
1.936,1.27,-0.16,-0.43,1.35
1.947,0.34,-0.05,0.44,0.56
1.957,-0.35,-0.21,-0.31,0.51
1.967,-0.58,-0.71,-0.46,1.03
1.977,0.17,0.12,0.85,0.88
1.987,1.22,0.70,0.64,1.55
1.997,1.12,0.98,-1.03,1.81
2.007,0.53,1.03,-0.26,1.19
2.017,-0.28,0.52,0.31,0.67
2.027,-2.29,-1.27,-0.02,2.62
2.037,-1.63,0.09,-0.37,1.67
2.047,-0.52,-0.69,-0.79,1.17
2.058,-0.41,-0.41,0.46,0.75
2.068,0.95,0.11,0.28,0.99
2.078,0.57,-0.12,-0.31,0.65
2.088,-0.13,0.27,0.03,0.30
2.098,-0.27,-0.91,-0.20,0.97
2.108,0.73,0.55,0.75,1.18
2.118,1.59,0.62,0.20,1.71
2.128,0.25,0.38,-0.82,0.94
2.138,-0.01,1.11,0.35,1.16
2.148,-1.12,-0.04,-0.25,1.15
2.158,-2.08,0.26,-0.10,2.10
2.168,-1.36,-0.43,-0.56,1.53
2.178,-0.21,-0.37,-0.69,0.81
2.189,0.94,-0.04,0.82,1.25
2.199,0.59,-1.15,0.13,1.30
2.209,-0.16,-0.00,0.16,0.22
2.219,-0.25,0.44,-0.37,0.62
2.229,-0.43,-0.42,-0.59,0.84
2.239,0.71,0.65,0.90,1.31
2.249,2.04,1.00,0.34,2.29
2.259,0.75,0.14,-0.91,1.19
2.269,-0.31,0.63,0.56,0.90
2.279,-1.72,-0.12,-0.06,1.73
2.290,-2.59,-0.06,-0.77,2.70
2.299,-0.74,0.87,-0.34,1.19
2.310,-0.04,-0.75,-0.34,0.83
2.320,0.92,-0.10,0.45,1.03
2.330,1.15,-0.21,0.48,1.27
2.340,-0.56,-1.27,-0.42,1.45
2.350,-0.97,-0.53,-0.10,1.11
2.360,0.11,0.06,-0.00,0.12
2.370,0.81,0.95,0.57,1.37
2.380,1.81,1.24,0.15,2.19
2.390,0.88,0.76,-0.92,1.48
2.400,-0.29,0.52,0.13,0.61
2.410,-2.03,-0.49,0.19,2.10
2.420,-2.71,-0.75,-0.32,2.83
2.431,-0.73,-0.07,-0.60,0.94
2.441,0.88,0.33,0.03,0.94
2.451,1.20,0.16,0.24,1.23
2.461,0.62,-0.12,0.16,0.65
2.471,-0.19,-0.18,-0.40,0.48
2.481,-1.35,-1.03,-0.29,1.72
2.491,-0.60,-0.86,0.42,1.12
2.501,0.97,0.39,0.45,1.14
2.511,1.97,1.25,0.54,2.40
2.521,1.42,1.35,-1.06,2.23
2.531,-0.32,0.48,-0.32,0.66
2.542,-2.12,0.48,0.53,2.24
2.551,-2.78,-0.53,-0.72,2.92
2.562,-1.07,-0.61,-0.30,1.27
2.572,0.33,0.09,0.32,0.47
2.582,0.85,-1.13,-0.51,1.50
2.592,1.17,0.53,0.89,1.56
2.602,-0.00,-0.69,-0.30,0.76
2.612,-0.88,-0.90,-0.65,1.42
2.622,-0.52,-0.05,0.44,0.68
2.632,0.28,0.09,0.44,0.53
2.643,1.62,1.47,0.27,2.20
2.652,1.44,0.96,-0.79,1.91
2.663,0.22,0.80,-0.11,0.84
2.673,-2.06,0.53,0.50,2.19
2.683,-2.59,-0.61,-0.97,2.83
2.693,-1.20,-1.01,-0.47,1.64
2.703,0.09,0.26,0.79,0.84
2.713,1.01,-0.72,-0.37,1.30
2.723,1.00,-0.14,0.33,1.07
2.733,0.14,-0.03,-0.12,0.19
2.743,-0.97,-1.35,-0.63,1.78
2.753,-0.05,0.62,0.67,0.91
2.764,1.04,0.48,0.79,1.39
2.773,1.00,0.83,-0.74,1.49
2.784,0.68,1.14,-0.54,1.44
2.794,-0.09,0.51,0.29,0.59
2.804,-2.17,0.44,0.13,2.22
2.814,-2.17,0.05,-0.22,2.18
2.824,-0.32,-0.58,-1.23,1.40
2.834,0.34,-0.49,0.11,0.61
2.844,0.68,-0.74,0.72,1.23
2.854,0.28,-0.74,0.50,0.94
2.864,-0.09,-0.05,-0.42,0.43
2.874,-0.36,-0.37,-0.60,0.80
2.885,-0.17,0.24,0.43,0.52
2.894,1.57,1.19,0.75,2.11
2.904,1.44,0.57,-0.74,1.71
2.915,0.32,0.60,-0.15,0.69
2.925,-0.58,0.53,0.48,0.92
2.935,-2.35,-0.16,-0.33,2.38
2.945,-1.72,0.61,-0.52,1.89
2.955,-0.59,-0.35,-0.80,1.05
2.965,0.24,-0.55,0.06,0.61
2.975,0.91,-0.34,0.89,1.32
2.985,0.24,-1.16,-0.08,1.18
2.995,-0.44,-0.37,-0.17,0.60
3.005,-0.13,-0.31,-0.35,0.49
3.016,0.41,0.43,0.42,0.73
3.026,1.27,1.41,0.67,2.01
3.036,1.12,0.92,-0.76,1.64
3.046,0.13,0.69,-0.45,0.84
3.056,-0.81,0.05,0.54,0.98
3.066,-2.35,-0.95,-0.33,2.55
3.076,-1.85,-0.45,-0.41,1.94
3.086,0.41,0.49,-0.17,0.66
3.096,0.30,-0.20,-0.16,0.40
3.106,0.82,0.08,0.36,0.90
3.116,0.68,-0.11,-0.03,0.69
3.126,-0.99,-0.75,-0.31,1.28
3.136,-0.95,-0.74,0.07,1.20
3.147,0.70,-0.01,0.48,0.85
3.157,1.86,1.23,0.44,2.28
3.167,1.25,0.84,-0.62,1.63
3.177,0.38,0.90,-0.25,1.01
3.187,-1.32,0.59,0.22,1.46
3.197,-2.82,-0.35,-0.33,2.86
3.207,-1.80,-0.39,-0.57,1.93
3.217,-0.12,-0.22,-0.38,0.46
3.227,1.19,-0.42,0.32,1.31
3.237,0.85,-0.27,0.66,1.11
3.248,0.16,-0.49,-0.28,0.59
3.258,-0.49,-0.40,-0.52,0.82
3.267,-0.82,-0.44,0.05,0.93
3.278,-0.09,0.07,0.65,0.66
3.288,1.88,1.32,0.43,2.34
3.298,1.40,0.73,-1.17,1.97
3.308,0.76,0.87,0.23,1.18
3.318,-0.79,0.61,0.53,1.13
3.328,-3.10,-0.41,-0.39,3.15
3.338,-1.95,-0.16,-1.14,2.27
3.348,-0.25,-0.49,-0.15,0.57
3.358,0.64,-0.59,0.31,0.93
3.368,1.20,-0.70,0.61,1.52
3.379,0.51,-0.19,0.16,0.57
3.389,-0.66,-0.53,-0.80,1.17
3.399,-0.58,0.03,0.06,0.59
3.409,0.75,0.83,0.84,1.40
3.419,1.22,0.86,-0.27,1.51
3.429,1.00,1.22,-0.40,1.63
3.439,0.29,0.83,0.23,0.91
3.449,-1.32,-0.36,-0.26,1.40
3.459,-2.30,-0.39,0.14,2.34
3.469,-1.31,-0.42,-1.04,1.73
3.480,-0.05,-0.86,-0.23,0.89
3.490,0.62,0.09,0.86,1.07
3.500,0.11,-1.00,-0.20,1.02
3.510,0.85,1.01,0.24,1.34
3.520,-0.70,-0.14,-0.69,0.99
3.530,-0.76,-0.90,-0.17,1.19
3.540,1.65,1.26,1.21,2.41
3.550,1.59,0.33,-0.22,1.63
3.560,0.52,0.57,-0.55,0.95
3.570,0.08,0.69,0.47,0.84
3.580,-2.08,-0.31,-0.61,2.19
3.590,-2.34,0.25,0.00,2.35
3.600,-1.25,-0.61,-0.73,1.57
3.610,0.11,-0.46,-0.27,0.55
3.620,1.40,0.22,0.86,1.65
3.631,0.78,-0.51,-0.16,0.94
3.641,-0.56,-0.27,0.03,0.63
3.651,-0.35,-0.18,-0.35,0.53
3.661,-0.32,-0.04,-0.22,0.39
3.671,0.79,0.37,1.20,1.48
3.681,1.90,0.73,-0.50,2.10
3.691,0.60,0.99,-0.45,1.24
3.701,-0.70,0.39,0.63,1.02
3.711,-2.33,-0.30,-0.95,2.54
3.721,-1.97,0.14,0.12,1.98
3.732,0.15,0.36,-0.61,0.72
3.742,0.10,-0.72,-0.09,0.73
3.752,1.13,0.05,0.73,1.35
3.762,0.62,-0.54,-0.24,0.85
3.772,-0.99,-0.87,0.08,1.32
3.782,-0.73,-0.32,-0.35,0.87
3.792,0.23,-0.37,0.12,0.45
3.802,2.17,2.17,1.16,3.28
3.812,2.77,2.36,0.05,3.64
3.822,1.66,2.16,-0.66,2.81
3.832,-0.04,1.87,0.65,1.98
3.843,-1.09,-0.27,-1.01,1.51
3.852,-1.85,-0.56,-0.16,1.94
3.863,-1.55,-0.30,0.23,1.59
3.873,-0.67,-1.69,-0.04,1.82
3.883,0.25,-0.56,0.32,0.69
3.893,0.70,-0.65,-0.42,1.05
3.903,0.03,-0.54,-0.85,1.01
3.913,-0.41,0.42,0.87,1.05
3.923,-0.67,-0.02,0.18,0.70
3.933,-0.27,0.00,-0.71,0.76
3.943,0.32,0.15,-0.63,0.72
3.953,0.19,-0.50,0.21,0.58
3.963,-0.42,-0.92,0.35,1.07
3.974,-0.21,-0.56,0.32,0.67
3.984,-0.98,-0.46,-0.69,1.28
3.994,-2.04,0.29,-0.45,2.10
4.004,-1.09,0.89,-0.36,1.46
4.014,-0.02,0.07,-0.45,0.46
4.024,0.69,0.53,0.65,1.09
4.034,-1.43,0.19,0.45,1.51
4.044,-2.91,2.21,-0.92,3.77
4.054,-0.34,1.62,-1.45,2.20
4.064,-1.04,-1.20,-0.95,1.85
4.074,-0.21,-1.34,1.34,1.90
4.084,1.18,-2.51,1.10,2.98
4.095,0.29,-0.62,-0.32,0.76
4.105,-0.45,0.53,0.40,0.80
4.115,-0.24,-0.23,-2.09,2.12
4.125,-0.70,-0.37,-0.90,1.20
4.135,-1.42,-1.83,0.97,2.52
4.145,0.36,-1.02,0.60,1.24
4.155,0.64,-0.26,1.10,1.30
4.165,3.95,3.15,2.28,5.54
4.175,2.52,2.01,-4.20,5.30
4.185,0.81,0.90,0.09,1.21
4.195,1.48,2.71,2.13,3.75
4.206,-1.17,-1.57,-0.38,1.99
4.216,-1.09,-1.69,-0.02,2.01
4.226,0.35,-0.52,0.18,0.65
4.236,-0.20,-1.31,-0.50,1.41
4.246,0.10,-0.82,0.11,0.83
4.256,0.12,-0.26,0.41,0.51
4.266,0.40,0.23,-0.33,0.57
4.276,0.00,-0.32,-0.37,0.49
4.286,0.09,-0.02,-0.03,0.10
4.296,-0.06,-0.43,0.24,0.50
4.306,0.04,-0.35,-0.04,0.35
4.316,0.45,-0.24,0.40,0.65
4.326,1.31,0.35,0.47,1.44
4.337,1.07,0.47,-0.95,1.51
4.347,0.13,0.03,0.23,0.27
4.357,-1.30,0.90,0.48,1.65
4.367,-3.87,1.09,-0.54,4.06
4.377,-3.04,1.80,-1.61,3.88
4.387,-0.62,1.43,-0.72,1.72
4.397,0.23,0.36,0.02,0.43
4.407,1.19,0.27,1.38,1.84
4.417,1.06,-1.13,-0.19,1.56
4.427,-0.31,-2.16,-0.42,2.22
4.437,-0.01,-1.07,0.03,1.07
4.448,0.31,-0.61,0.81,1.06
4.458,1.04,1.31,0.59,1.78
4.468,1.30,1.72,-0.88,2.33
4.478,0.07,1.09,-0.79,1.34
4.488,-2.08,0.95,0.22,2.30
4.498,-2.55,-0.04,-0.10,2.56
4.508,-1.33,-0.59,-0.32,1.49
4.518,0.03,-0.64,0.65,0.91
4.528,0.96,-0.75,-0.96,1.55
4.538,0.51,-0.59,0.80,1.12
4.548,0.63,0.56,-0.86,1.21
4.559,-0.25,-1.23,0.32,1.29
4.569,-1.00,-0.17,-0.08,1.02
4.579,-0.42,-0.19,0.28,0.54
4.589,1.45,1.05,0.78,1.95
4.599,2.04,1.82,-0.72,2.82
4.609,0.60,-0.12,-0.65,0.89
4.619,-0.29,1.06,0.36,1.15
4.629,-2.97,-0.50,0.49,3.05
4.639,-2.61,-0.66,-1.11,2.91
4.649,-0.06,0.21,-0.24,0.33
4.659,0.19,-1.24,-0.23,1.27
4.669,1.21,0.36,0.97,1.60
4.680,0.49,0.33,0.23,0.63
4.690,0.04,-0.83,-0.86,1.19
4.700,-0.37,-0.02,-0.57,0.68
4.710,-0.18,-1.21,0.81,1.47
4.720,1.51,1.48,1.18,2.42
4.730,1.01,0.89,-0.75,1.54
4.740,-0.04,0.51,-0.96,1.09
4.750,-0.76,1.27,0.35,1.53
4.760,-2.41,-0.52,-0.50,2.51
4.770,-1.28,-0.25,-0.38,1.36
4.780,0.13,-0.53,0.40,0.68
4.790,0.17,-0.80,0.25,0.86
4.801,0.75,0.31,-0.56,0.99
4.811,-0.07,-0.60,0.39,0.72
4.821,-0.56,-0.08,-0.71,0.91
4.831,-0.14,-0.95,0.42,1.05
4.841,1.38,0.81,1.04,1.90
4.851,1.34,-1.86,3.39,4.09
4.861,-0.94,-0.30,-0.20,1.01
4.871,-0.49,-0.41,-0.98,1.18
4.881,-0.85,2.91,0.60,3.09
4.891,-1.54,0.24,-2.87,3.27
4.901,-0.59,-1.04,-2.10,2.42
4.911,-0.35,0.16,5.18,5.20
4.921,-0.96,-1.56,-2.30,2.94
4.931,0.98,1.78,0.92,2.23
4.942,-0.29,-0.66,-1.06,1.28
4.952,-0.24,-0.39,-2.75,2.78
4.962,0.98,0.20,2.34,2.55
4.972,1.76,0.62,0.40,1.91
4.982,0.60,0.73,-2.28,2.47
4.992,1.35,1.04,-0.84,1.90
5.002,0.06,0.07,1.73,1.73
5.012,-2.81,1.23,-2.06,3.69
5.022,-2.51,0.23,-1.05,2.73
5.032,0.89,4.71,-1.81,5.13
5.043,0.63,3.95,-1.73,4.36
5.052,0.83,3.48,-1.15,3.76
5.063,0.82,4.69,-0.94,4.85
5.073,-1.26,1.96,-3.12,3.89
5.083,-0.76,-10.97,10.77,15.39
5.093,-1.34,-1.78,-1.63,2.76
5.103,1.65,0.43,-5.14,5.42
5.113,0.84,-4.62,11.79,12.69
5.123,-0.50,-2.50,-0.41,2.58
5.133,0.10,0.20,-4.03,4.04
5.143,-0.89,0.94,-1.39,1.90
5.153,-0.66,0.42,-4.81,4.88
5.164,-0.58,-2.05,1.93,2.88
5.174,1.79,0.86,3.35,3.90
5.184,-0.07,-1.57,-0.07,1.57
5.194,0.07,0.69,0.80,1.06
5.204,-0.78,0.76,-3.24,3.42
5.214,-1.52,-2.11,-0.47,2.64
5.224,0.52,1.35,0.48,1.52
5.234,1.73,-0.40,2.38,2.97
5.244,1.92,0.46,0.62,2.07
5.254,0.84,0.68,-1.74,2.05
5.264,-0.58,0.07,-0.08,0.59
5.275,-2.05,0.78,-1.24,2.52
5.284,-3.09,-0.56,1.10,3.33
5.295,-0.77,0.27,-0.63,1.03
5.305,0.46,-0.37,0.06,0.60
5.315,1.28,-0.07,-0.35,1.33
5.325,0.64,-0.49,0.68,1.06
5.335,0.02,-0.38,-0.91,0.98
5.345,-0.54,-0.63,1.03,1.32
5.355,-0.04,-0.04,-0.43,0.44
5.365,0.97,0.84,0.83,1.53
5.375,1.23,1.39,-0.93,2.07
5.385,0.56,0.67,-0.24,0.91
5.396,-0.24,0.91,0.39,1.02
5.405,-2.11,0.05,0.35,2.14
5.416,-1.97,-0.59,-1.28,2.43
5.426,-0.57,-0.62,-0.39,0.93
5.436,-0.25,-0.67,0.23,0.75
5.446,1.15,-0.37,0.45,1.29
5.456,0.79,-0.48,0.53,1.07
5.466,-0.61,-0.00,-0.63,0.87
5.476,-0.30,0.19,-0.32,0.48
5.486,0.62,0.32,0.55,0.89
5.496,1.26,1.26,0.35,1.81
5.506,0.96,0.52,-0.58,1.24
5.517,0.58,0.85,0.21,1.05
5.527,-1.08,-0.09,-0.26,1.12
5.537,-2.50,-1.04,-0.10,2.71
5.547,-1.67,0.26,-0.32,1.71
5.557,-0.40,-0.77,-0.63,1.07
5.567,0.44,-0.03,0.36,0.58
5.577,0.90,0.11,0.53,1.05
5.587,0.76,0.11,-0.49,0.91
5.597,-0.42,0.02,0.02,0.42
5.607,-0.87,-0.91,-0.31,1.30
5.617,0.38,-0.08,0.64,0.75
5.627,1.74,1.08,0.36,2.08
5.638,1.04,0.60,-0.39,1.27
5.648,0.32,0.79,-0.32,0.91
5.658,-1.31,0.24,0.25,1.35
5.668,-2.21,-0.20,-0.44,2.26
5.678,-1.52,-0.22,-0.48,1.61
5.688,-0.33,-0.44,-0.10,0.56
5.698,0.81,-0.11,0.04,0.82
5.708,0.94,-0.39,0.23,1.04
5.718,-0.07,-0.28,0.26,0.39
5.728,-0.47,-0.12,-0.44,0.65
5.738,-0.15,-0.17,-0.29,0.36
5.748,0.81,0.83,1.04,1.56
5.759,1.28,0.52,-0.28,1.41
5.768,0.91,0.57,-0.59,1.22
5.779,0.14,0.61,0.24,0.67
5.789,-1.95,-0.60,0.16,2.05
5.799,-2.61,-0.33,-0.24,2.64
5.809,-1.09,0.03,-0.75,1.33
5.819,0.31,0.12,-0.30,0.45
5.829,0.76,-0.19,0.43,0.89
5.839,1.17,-0.25,0.01,1.19
5.849,-0.12,-0.31,0.46,0.57
5.859,-1.07,-0.49,-0.57,1.31
5.869,-0.70,-0.37,-0.14,0.81
5.880,1.05,0.66,0.73,1.44
5.890,2.14,1.39,0.15,2.56
5.900,1.09,0.49,-0.63,1.35
5.910,0.05,0.65,0.05,0.65
5.920,-1.84,-0.45,0.03,1.90
5.930,-2.98,-0.37,-0.07,3.00
5.940,-1.63,-0.36,-0.77,1.84
5.950,0.47,-0.11,-0.35,0.59
5.960,0.98,0.26,0.50,1.13
5.970,1.17,-0.54,0.11,1.29
5.980,0.39,0.24,0.26,0.52
5.990,-0.76,-0.55,-0.45,1.04
6.001,-1.18,-0.76,-0.37,1.45
6.011,0.60,0.98,1.17,1.64
6.021,1.93,0.92,-0.26,2.16
6.031,1.30,1.02,-0.55,1.74
6.041,0.11,0.33,0.31,0.46
6.051,-1.52,-0.46,-0.30,1.62
6.061,-2.38,-0.31,0.17,2.41
6.071,-1.65,-0.65,-0.85,1.96
6.081,-0.52,-0.57,-0.28,0.83
6.091,1.10,1.22,0.53,1.73
6.101,1.38,-0.21,-0.11,1.40
6.111,0.01,-0.47,-0.05,0.48
6.122,-0.40,-0.14,0.07,0.43
6.132,-0.07,-0.66,-0.25,0.71
6.142,0.28,0.16,0.94,0.99
6.152,1.49,1.20,0.03,1.91
6.162,0.86,1.18,-0.91,1.72
6.172,-0.21,0.96,0.14,0.99
6.182,-1.39,-0.98,-0.23,1.72
6.192,-2.32,-0.72,0.05,2.43
6.202,-0.80,0.10,-0.23,0.84
6.212,-0.28,-1.11,-0.52,1.26
6.222,0.19,0.01,0.53,0.56
6.232,1.53,1.07,0.05,1.87
6.243,-0.01,-0.11,-0.46,0.47
6.253,-0.90,-0.62,-0.11,1.10
6.263,0.28,-0.39,0.16,0.50
6.273,0.80,0.23,0.79,1.14
6.283,1.31,0.49,0.01,1.39
6.293,0.56,0.65,-0.64,1.07
6.303,-0.30,0.95,0.10,1.00
6.313,-1.49,0.12,-0.01,1.49
6.323,-2.17,-0.06,-0.51,2.23
6.333,-0.77,0.01,-0.44,0.89
6.344,0.35,-0.03,-0.10,0.36
6.354,0.53,-0.77,0.35,1.00
6.364,0.62,-0.39,0.46,0.87
6.374,-0.06,-0.27,-0.36,0.46
6.384,-0.34,-0.06,-0.25,0.42
6.394,-0.13,0.01,0.16,0.21
6.404,0.62,0.08,0.50,0.80
6.414,1.71,1.35,-0.16,2.19
6.424,0.65,0.50,-0.31,0.88
6.434,-1.05,0.05,-0.05,1.05
6.444,-2.06,-0.17,0.03,2.07
6.454,-1.90,0.14,-0.57,1.98
6.465,-0.50,0.27,-0.28,0.63
6.475,0.51,-0.49,0.14,0.72
6.485,1.25,0.01,-0.23,1.27
6.495,0.52,-0.58,0.37,0.86
6.505,-1.03,-0.89,-0.14,1.37
6.515,-1.12,-0.78,-0.07,1.37
6.525,0.16,0.20,-0.08,0.27
6.535,1.51,1.15,0.81,2.07
6.545,1.87,0.78,-0.16,2.03
6.555,0.94,0.87,-0.93,1.58
6.565,-0.41,0.52,0.55,0.86
6.575,-2.86,-0.40,-0.12,2.89
6.586,-2.63,-0.28,-0.40,2.67
6.596,-0.48,-0.16,-0.81,0.96
6.606,0.81,0.19,0.37,0.91
6.616,1.47,-0.51,0.09,1.56
6.626,0.55,-0.47,0.42,0.83
6.636,-0.20,-0.08,-0.23,0.32
6.646,-1.47,-1.37,-0.45,2.06
6.656,-0.75,0.37,0.27,0.88
6.666,1.27,0.75,0.68,1.62
6.676,2.36,1.65,-0.31,2.90
6.686,0.83,0.63,-0.70,1.26
6.697,-0.03,0.24,0.16,0.29
6.706,-2.23,0.14,0.42,2.27
6.717,-3.03,-0.89,-0.64,3.22
6.727,-0.96,-0.39,-0.70,1.25
6.737,0.43,0.21,0.30,0.57
6.747,1.53,-0.49,-0.05,1.61
6.757,0.73,-0.13,0.58,0.94
6.767,0.13,-0.21,-0.24,0.35
6.777,-0.51,-0.91,-0.63,1.22
6.787,-0.93,-0.44,0.49,1.14
6.797,1.22,1.00,1.04,1.89
6.807,1.42,1.20,-0.94,2.08
6.818,0.66,0.90,-0.35,1.17
6.828,-0.21,1.16,0.29,1.21
6.838,-2.74,0.09,-0.21,2.75
6.848,-1.89,-0.71,-0.80,2.18
6.858,-0.76,-0.92,-0.19,1.21
6.868,0.46,-0.31,0.55,0.78
6.878,1.39,-0.41,0.15,1.45
6.888,0.45,0.06,0.11,0.47
6.898,-0.32,-0.23,-0.51,0.64
6.908,-0.45,-0.20,-0.22,0.54
6.918,-0.26,0.18,0.54,0.62
6.928,1.31,0.73,0.59,1.61
6.939,1.18,0.65,-0.75,1.54
6.949,0.56,0.40,-0.30,0.75
6.959,-0.34,0.52,0.61,0.87
6.969,-2.79,0.21,-0.16,2.81
6.979,-1.90,-0.21,-1.04,2.17
6.989,-0.08,0.01,-0.46,0.46
6.999,0.42,-0.34,0.36,0.64
7.009,0.93,-0.74,0.59,1.32
7.019,0.37,-0.30,0.19,0.51
7.029,-0.18,-0.15,-0.59,0.63
7.039,-0.24,-0.38,-0.31,0.55
7.049,-0.01,0.11,0.50,0.51
7.059,1.30,0.94,0.66,1.74
7.070,1.10,0.70,-0.59,1.43
7.080,-0.01,0.61,-0.41,0.74
7.090,-0.98,0.20,0.45,1.09
7.100,-2.05,-0.02,-0.41,2.09
7.110,-1.46,0.07,-0.30,1.50
7.120,-0.02,-0.26,-0.48,0.54
7.130,0.47,-0.35,-0.00,0.59
7.140,0.88,-0.26,0.65,1.13
7.150,0.11,-0.54,-0.02,0.55
7.160,-0.94,-0.74,-0.38,1.26
7.170,-0.49,-0.42,-0.29,0.71
7.181,1.01,0.64,0.71,1.39
7.190,1.70,0.87,0.57,1.99
7.201,1.17,0.85,-0.96,1.73
7.211,0.22,0.61,-0.01,0.65
7.221,-1.40,0.10,0.18,1.41
7.231,-2.97,-0.34,-0.13,2.99
7.241,-1.61,-0.46,-0.79,1.85
7.251,0.31,0.05,-0.18,0.36
7.261,0.50,-0.34,0.18,0.64
7.271,1.20,-0.42,0.29,1.30
7.281,0.45,-0.06,0.27,0.53
7.291,-0.83,-0.66,-0.51,1.18
7.301,-0.78,-0.36,-0.01,0.86
7.312,1.20,1.36,0.89,2.02
7.322,1.60,0.84,-0.38,1.85
7.332,0.68,0.53,-0.62,1.06
7.342,0.27,0.67,0.43,0.84
7.352,-1.43,-0.23,0.09,1.45
7.362,-2.56,-0.27,-0.26,2.59
7.372,-1.86,-0.72,-1.25,2.36
7.382,0.24,0.49,0.31,0.63
7.392,1.00,-0.11,0.23,1.03
7.402,0.70,-0.89,0.20,1.15
7.412,0.60,0.40,0.31,0.78
7.423,-0.24,-0.78,-0.70,1.07
7.433,-0.41,-0.06,0.22,0.47
7.443,0.67,0.85,0.95,1.44
7.453,1.07,0.52,-0.94,1.51
7.463,1.05,1.14,0.10,1.55
7.473,-0.29,0.38,0.10,0.49
7.483,-1.95,-0.24,-0.15,1.97
7.493,-2.20,0.01,-0.26,2.22
7.503,-1.05,-0.72,-1.15,1.71
7.513,0.07,-0.07,0.46,0.47
7.523,1.10,-0.11,0.49,1.21
7.534,1.03,-0.28,-0.15,1.08
7.544,-0.27,-0.12,0.11,0.31
7.554,-0.52,-0.51,-0.60,0.94
7.564,-0.35,-0.07,0.40,0.53
7.574,1.07,0.95,0.92,1.70
7.584,1.33,0.55,-0.87,1.69
7.594,0.88,1.16,-0.04,1.46
7.604,-0.06,0.52,0.22,0.56
7.614,-2.21,-0.92,-0.40,2.42
7.624,-2.28,0.00,0.06,2.28
7.634,-0.63,-0.23,-0.99,1.20
7.644,0.13,-0.57,0.17,0.61
7.654,0.57,0.27,0.44,0.77
7.665,0.84,-0.55,-0.20,1.03
7.675,0.39,0.29,0.04,0.49
7.685,-0.66,-0.33,-0.11,0.74
7.695,-0.55,-0.42,-0.18,0.72
7.705,1.17,0.85,0.83,1.67
7.715,1.35,0.57,-0.38,1.52
7.725,0.35,0.31,-0.32,0.56
7.735,-0.14,0.58,0.43,0.73
7.745,-2.06,-0.38,-0.50,2.15
7.755,-2.19,0.26,-0.02,2.20
7.765,-0.86,-0.43,-1.02,1.40
7.776,0.31,-0.54,0.13,0.63
7.786,1.15,0.07,0.47,1.24
7.796,0.56,-0.73,0.19,0.94
7.806,-0.47,-0.05,-0.10,0.48
7.816,-0.51,-0.29,-0.57,0.82
7.826,0.58,0.43,0.22,0.75
7.836,1.14,0.80,0.85,1.63
7.846,1.38,0.56,-0.60,1.61
7.856,0.41,0.54,-0.35,0.76
7.866,-0.93,0.24,0.46,1.06
7.876,-2.55,-0.50,-0.23,2.61
7.886,-2.14,-0.22,-0.71,2.27
7.897,-0.06,0.24,-0.27,0.37
7.907,0.60,-0.50,-0.23,0.82
7.917,1.12,-0.22,0.73,1.35
7.927,0.60,-0.04,0.24,0.65
7.937,-0.81,-0.63,-0.64,1.21
7.947,-1.06,-0.03,-0.11,1.07
7.957,0.62,0.45,0.41,0.87
7.967,1.88,1.12,0.44,2.23
7.977,1.22,0.82,-0.52,1.56
7.987,0.40,0.33,-0.28,0.59
7.997,-0.87,-0.17,0.32,0.94
8.007,-2.64,-0.88,-0.00,2.79
8.018,-2.59,-0.70,-0.77,2.79
8.028,0.32,0.93,-0.26,1.02
8.038,0.88,0.36,-0.01,0.95
8.048,0.60,-0.52,0.07,0.80
8.058,0.97,0.24,0.48,1.11
8.068,-0.43,-0.61,-0.50,0.90
8.078,-1.19,-0.78,-0.09,1.43
8.088,0.40,0.16,1.01,1.10
8.098,1.85,1.23,-0.25,2.23
8.108,1.23,1.57,-0.51,2.06
8.118,0.02,0.19,-0.08,0.21
8.128,-1.47,-0.43,-0.33,1.57
8.139,-2.20,-0.54,0.45,2.31
8.149,-1.41,-0.50,-0.58,1.60
8.159,-0.32,-0.38,-0.53,0.73
8.169,0.71,0.88,0.52,1.25
8.179,1.01,0.36,-0.50,1.18
8.189,-0.06,-0.54,0.31,0.62
8.199,-0.27,-0.57,-0.27,0.68
8.209,-0.49,-0.90,0.02,1.02
8.219,0.43,0.14,1.00,1.10
8.229,1.49,0.83,-0.15,1.71
8.239,0.92,1.35,-0.78,1.81
8.249,0.45,1.37,0.07,1.44
8.260,-1.02,-0.55,-0.33,1.20
8.270,-2.26,-1.01,0.31,2.49
8.280,-1.06,0.03,-0.34,1.12
8.290,-0.54,-0.83,-0.68,1.21
8.300,-0.13,0.26,0.68,0.74
8.310,1.08,0.30,-0.34,1.17
8.320,0.55,0.34,-0.20,0.68
8.330,-0.14,-0.10,0.30,0.35
8.340,-0.50,-1.19,-0.48,1.37
8.350,0.48,0.28,0.83,1.00
8.361,1.31,0.27,0.27,1.37
8.370,0.29,0.31,-0.75,0.86
8.381,0.08,1.21,0.18,1.23
8.391,-0.82,0.48,-0.29,0.99
8.401,-2.21,-0.00,-0.06,2.21
8.411,-1.11,-0.31,-0.71,1.35
8.421,-0.18,-0.43,-0.26,0.53
8.431,0.65,-0.17,0.52,0.85
8.441,0.66,-0.83,0.11,1.06
8.451,-0.17,-0.07,0.05,0.19
8.461,-0.34,-0.06,-0.36,0.49
8.471,0.01,0.43,-0.37,0.57
8.481,0.24,-0.25,0.86,0.93
8.491,1.98,0.77,0.12,2.12
8.502,0.99,0.64,-0.67,1.36
8.512,-0.62,0.11,0.37,0.73
8.522,-1.59,-0.06,-0.12,1.60
8.532,-2.36,0.24,-0.38,2.40
8.542,-0.98,0.73,-0.66,1.39
8.552,0.19,-0.68,-0.30,0.77
8.562,1.00,0.09,0.49,1.11
8.572,1.20,-0.34,0.34,1.30
8.582,-0.68,-1.13,-0.29,1.35
8.592,-1.07,-0.22,0.05,1.10
8.602,-0.08,-0.25,-0.32,0.42
8.612,0.66,0.84,0.47,1.17
8.623,1.90,1.12,0.53,2.27
8.633,1.18,0.50,-1.03,1.64
8.643,0.26,0.48,0.05,0.55
8.653,-1.91,-0.35,0.55,2.02
8.663,-3.22,-0.65,-0.55,3.33
8.673,-1.04,0.54,-0.58,1.30
8.683,0.47,0.33,-0.37,0.68
8.693,0.76,-0.75,0.20,1.09
8.703,1.34,0.05,0.57,1.46
8.713,0.05,-0.57,-0.14,0.59
8.723,-1.14,-1.10,-0.40,1.63
8.734,-0.79,-0.24,0.04,0.82
8.744,0.66,0.16,0.44,0.81
8.754,2.18,1.80,0.44,2.86
8.764,1.13,1.13,-0.80,1.78
8.774,-0.08,0.34,-0.31,0.46
8.784,-1.80,0.69,0.45,1.98
8.794,-3.11,-0.89,-0.61,3.29
8.804,-0.83,-0.55,-0.65,1.19
8.814,0.30,-0.06,0.56,0.64
8.824,1.27,-0.27,-0.23,1.32
8.834,1.02,0.04,0.56,1.16
8.844,-0.34,-0.39,-0.50,0.72
8.855,-0.73,-1.09,-0.39,1.37
8.865,-0.76,-0.32,0.40,0.92
8.875,0.59,0.35,0.85,1.09
8.885,2.36,1.81,-0.09,2.97
8.895,1.23,0.51,-1.04,1.69
8.905,-0.20,1.11,-0.16,1.14
8.915,-2.33,0.50,0.95,2.57
8.925,-2.48,-0.62,-1.33,2.88
8.935,-1.27,-0.99,-0.12,1.62
8.945,0.41,0.08,0.57,0.71
8.955,1.26,-0.72,-0.80,1.66
8.965,0.85,-0.04,1.11,1.40
8.976,0.27,0.41,-0.63,0.79
8.986,-1.03,-1.26,-0.20,1.64
8.996,-0.33,0.49,0.07,0.60
9.006,0.71,-0.26,0.60,0.96
9.016,1.37,1.10,0.14,1.76
9.026,0.58,0.67,-0.60,1.07
9.036,-0.14,0.18,-0.43,0.49
9.046,-1.51,1.11,0.77,2.03
9.056,-2.68,-0.30,-0.73,2.79
9.066,-0.58,-0.42,-0.96,1.20
9.077,0.58,-0.00,0.43,0.72
9.087,0.50,-0.88,0.05,1.02
9.097,0.46,-0.61,0.69,1.03
9.107,-0.10,-0.25,-0.39,0.47
9.117,-0.27,-0.42,-0.54,0.74
9.127,-0.11,0.12,0.27,0.31
9.137,1.12,0.57,0.80,1.49
9.147,1.47,0.95,-0.43,1.80
9.157,0.42,0.56,-0.51,0.87
9.167,-0.37,0.46,0.36,0.69
9.177,-2.01,0.37,0.01,2.05
9.187,-2.24,-0.06,-0.63,2.33
9.198,-0.56,-0.17,-0.85,1.03
9.208,0.19,-0.60,0.20,0.66
9.218,1.05,-0.33,0.64,1.27
9.228,0.28,-0.82,0.20,0.89
9.238,-0.20,-0.19,-0.22,0.36
9.248,-0.29,-0.24,-0.49,0.62
9.258,0.24,0.41,0.31,0.57
9.268,1.43,1.03,0.77,1.93
9.278,1.20,0.73,-0.71,1.57
9.288,0.44,0.52,-0.21,0.71
9.298,-0.40,0.29,0.40,0.63
9.308,-2.62,-0.80,-0.19,2.74
9.318,-2.36,0.08,-0.55,2.43
9.329,-0.09,0.25,-0.55,0.61
9.339,0.29,-0.52,-0.23,0.64
9.349,1.15,-0.02,0.88,1.45
9.359,0.81,-0.58,-0.01,0.99
9.369,-0.34,-0.31,-0.23,0.51
9.379,-0.89,-0.62,-0.18,1.10
9.389,0.66,0.50,0.40,0.92
9.399,1.46,1.32,0.48,2.02
9.409,0.84,0.65,-1.00,1.46
9.419,0.39,0.56,0.27,0.73
9.429,-1.07,0.43,0.32,1.20
9.440,-2.81,-0.72,-0.53,2.95
9.450,-1.77,-0.33,-0.88,2.00
9.460,-0.09,0.18,0.10,0.23
9.470,0.81,-0.36,0.06,0.89
9.480,1.15,-0.16,0.64,1.33
9.490,0.33,-0.13,-0.12,0.37
9.500,-0.35,-0.35,-0.70,0.86
9.510,-0.54,-0.39,0.11,0.67
9.520,0.34,0.15,0.88,0.95
9.530,1.54,1.11,-0.11,1.90
9.540,1.34,0.97,-0.58,1.76
9.550,0.09,0.67,0.14,0.69
9.561,-1.63,0.02,-0.05,1.63
9.571,-2.37,-0.12,-0.12,2.38
9.581,-1.59,-0.38,-0.98,1.91
9.591,-0.23,-0.32,0.09,0.40
9.601,1.02,-0.20,0.29,1.08
9.611,1.13,-0.45,0.17,1.23
9.621,0.47,0.22,0.31,0.60
9.631,-0.79,-0.60,-0.66,1.19
9.641,-0.79,-0.22,-0.20,0.84
9.651,0.51,0.33,0.80,1.01
9.661,1.34,0.62,0.05,1.47
9.671,0.95,0.70,-0.38,1.24
9.682,0.28,0.51,-0.16,0.61
9.692,-1.00,0.18,0.16,1.03
9.702,-2.46,-0.29,-0.13,2.48
9.712,-1.56,-0.34,-0.86,1.82
9.722,-0.03,-0.13,-0.31,0.34
9.732,0.37,-0.33,0.45,0.67
9.742,0.83,-0.26,0.10,0.87
9.752,0.35,-0.29,0.26,0.52
9.762,-0.04,0.12,-0.55,0.57
9.772,-0.68,-0.95,0.54,1.29
9.782,1.05,0.76,0.23,1.31
9.792,1.15,0.18,-0.03,1.16
9.802,0.79,1.39,-0.95,1.86
9.813,0.15,0.76,-0.05,0.78
9.823,-1.76,-0.14,0.43,1.81
9.833,-1.82,0.98,-0.03,2.07
9.843,-1.47,-1.91,-0.29,2.42
9.853,0.77,0.61,-0.94,1.36
9.863,0.12,-1.19,0.06,1.19
9.873,0.04,-1.08,0.42,1.16
9.883,0.30,0.88,0.33,0.99
9.893,-0.70,-0.55,0.34,0.95
9.903,0.76,0.98,-1.17,1.71
9.914,0.97,0.05,1.15,1.51
9.924,1.41,1.17,-0.94,2.06
9.934,0.36,-0.13,0.37,0.54
9.944,-0.17,0.36,0.49,0.63
9.954,-2.42,-0.89,-0.40,2.61
9.964,-2.33,0.21,-0.50,2.39
9.974,-0.40,0.59,-0.95,1.18
9.984,-0.08,-0.67,0.04,0.68
9.994,1.29,0.48,0.82,1.60
10.004,1.09,-0.60,-0.01,1.24
10.014,-0.44,-0.31,-0.20,0.58
10.024,-0.84,-0.45,-0.16,0.97
10.035,-0.06,0.20,-0.03,0.21
10.045,1.17,1.20,0.95,1.92
10.055,1.41,0.60,-0.83,1.74
10.065,0.52,0.68,-0.26,0.89
10.075,-0.55,0.06,0.41,0.69
10.085,-1.94,-1.25,-0.35,2.34
10.095,-2.39,-0.03,0.10,2.39
10.105,-0.51,0.18,-0.71,0.89
10.115,0.59,0.77,-0.18,0.98
10.125,0.65,-0.05,0.10,0.66
10.135,0.73,-0.74,0.06,1.04
10.145,-0.02,-0.04,0.13,0.14
10.156,-0.98,-1.31,0.01,1.64
10.166,-0.32,-0.42,0.17,0.55
10.176,1.71,1.57,0.61,2.40
10.186,1.98,1.78,-0.74,2.77
10.196,0.36,0.79,-0.18,0.88
10.206,-0.89,-0.16,-0.15,0.92
10.216,-1.93,-0.74,0.08,2.06
10.226,-2.09,-0.31,0.01,2.11
10.236,-1.01,-0.85,-0.73,1.51
10.246,0.40,0.30,-0.06,0.51
10.256,1.10,0.47,0.09,1.20
10.266,1.15,0.13,0.29,1.19
10.276,-0.38,-0.49,-0.14,0.64
10.287,-0.69,-0.17,-0.40,0.81
10.297,-0.35,-0.98,0.27,1.07
10.307,0.48,0.09,0.42,0.64
10.317,1.46,1.16,0.39,1.91
10.327,0.88,1.21,-0.97,1.79
10.337,-0.34,0.56,-0.02,0.65
10.347,-1.41,-0.50,0.02,1.49
10.357,-2.11,-0.96,0.21,2.33
10.367,-0.94,0.07,-1.51,1.78
10.377,-0.35,-1.05,1.12,1.57
10.388,0.77,1.09,-0.59,1.46
10.398,0.79,-0.42,0.44,0.99
10.408,0.47,0.60,-0.39,0.86
10.418,-0.85,-1.09,-0.19,1.40
10.428,0.09,-0.53,0.64,0.84
10.438,1.49,0.60,0.32,1.64
10.448,0.81,0.39,-0.13,0.91
10.458,0.40,1.26,-0.52,1.42
10.468,-0.58,0.58,0.05,0.82
10.478,-2.06,0.26,-0.21,2.09
10.488,-1.87,-0.45,-0.52,2.00
10.498,-0.41,-0.34,-0.46,0.71
10.508,0.51,-0.21,0.65,0.85
10.519,0.80,-1.01,-0.29,1.32
10.529,0.40,0.36,0.73,0.90
10.539,-0.32,0.06,-0.56,0.65
10.549,-0.50,-0.14,-0.71,0.88
10.559,0.01,0.57,1.02,1.17
10.569,1.74,0.19,0.03,1.75
10.579,1.50,0.46,-0.58,1.67
10.589,0.29,0.53,0.57,0.83
10.599,-1.69,-0.82,-0.20,1.89
10.609,-2.44,0.72,-0.17,2.55
10.619,-1.47,0.76,-0.86,1.87
10.629,-0.33,-0.55,-0.59,0.87
10.639,1.16,0.51,0.80,1.50
10.650,1.05,-0.78,-0.15,1.32
10.660,-0.09,-0.57,0.33,0.67
10.670,-0.60,-1.03,-0.31,1.23
10.680,-0.68,-0.60,-0.35,0.97
10.690,0.45,0.95,0.83,1.34
10.700,1.84,1.22,0.41,2.24
10.710,1.17,0.79,-1.16,1.83
10.720,0.42,0.87,-0.01,0.97
10.730,-1.38,-0.19,0.33,1.43
10.741,-3.12,-0.68,-0.14,3.19
10.750,-1.47,-0.07,-0.50,1.56
10.761,0.23,0.17,-0.50,0.58
10.771,0.96,0.06,0.31,1.01
10.781,1.21,-0.16,0.10,1.23
10.791,0.07,-0.50,0.11,0.51
10.801,-0.88,-0.96,-0.36,1.36
10.811,-0.93,-0.94,-0.05,1.32
10.821,-0.22,-0.23,0.25,0.41
10.831,2.62,1.79,1.18,3.38
10.841,1.75,1.66,-0.99,2.61
10.851,0.15,0.67,-0.70,0.98
10.861,-1.07,0.60,0.23,1.25
10.872,-3.30,-0.70,-0.13,3.38
10.882,-1.85,-0.77,-0.49,2.06
10.892,0.07,-0.38,0.21,0.45
10.902,0.67,-0.47,-0.28,0.87
10.912,1.92,0.58,0.29,2.03
10.922,0.27,-0.29,0.12,0.41
10.932,-0.64,-0.57,-0.66,1.08
10.942,-1.01,-0.87,0.08,1.34
10.952,-0.53,-0.33,0.33,0.70
10.962,1.53,1.20,0.98,2.17
10.972,1.82,1.10,-0.95,2.33
10.982,0.58,0.78,-0.62,1.15
10.992,-0.86,1.01,0.64,1.47
11.003,-3.15,-0.52,-0.64,3.26
11.013,-1.91,-0.84,-0.52,2.15
11.023,-0.33,-0.02,0.37,0.50
11.033,0.66,-0.78,-0.30,1.07
11.043,1.38,-0.09,0.25,1.41
11.053,0.92,0.31,0.24,1.00
11.063,-0.43,-0.74,-0.36,0.93
11.073,-0.76,-0.24,-0.20,0.82
11.083,-0.01,-0.15,0.41,0.43
11.093,1.12,0.74,0.53,1.44
11.104,1.06,0.84,-0.72,1.53
11.113,0.44,0.26,-0.26,0.58
11.124,-0.70,0.89,0.53,1.25
11.134,-2.88,0.14,-0.36,2.90
11.144,-1.56,-0.31,-0.98,1.87
11.154,-0.04,-0.11,-0.16,0.19
11.164,0.67,-0.72,0.09,0.99
11.174,1.09,-0.46,0.86,1.46
11.184,0.30,-0.12,0.15,0.36
11.194,-0.38,-0.17,-0.88,0.98
11.204,-0.23,0.19,0.19,0.35
11.214,0.65,0.54,0.34,0.91
11.225,1.44,0.67,-0.29,1.62
11.235,1.10,0.41,0.05,1.18
11.245,-0.48,0.07,0.17,0.51
11.255,-1.92,0.34,0.10,1.95
11.265,-2.01,0.57,-0.58,2.16
11.275,-1.39,-0.43,-1.35,1.98
11.285,0.12,-0.01,0.48,0.49
11.295,1.25,-0.54,0.33,1.41
11.305,0.56,-1.02,0.47,1.26
11.315,0.13,0.15,0.11,0.23
11.325,-0.35,-0.90,-0.88,1.31
11.335,-0.15,0.47,0.09,0.51
11.345,0.85,0.74,1.02,1.52
11.356,1.29,0.58,-0.62,1.54
11.366,0.80,0.95,-0.22,1.26
11.376,-0.21,0.30,0.24,0.44
11.386,-2.26,-0.59,-0.34,2.36
11.396,-2.45,-0.14,-0.24,2.47
11.406,-0.54,0.16,-0.67,0.88
11.416,0.16,-0.24,0.05,0.29
11.426,1.20,0.05,0.29,1.23
11.436,1.02,-0.31,0.16,1.07
11.446,-0.26,-0.30,0.00,0.39
11.457,-1.24,-1.33,-0.75,1.97
11.466,0.05,0.16,0.71,0.73
11.477,2.13,1.72,0.96,2.90
11.487,1.21,0.54,-1.22,1.80
11.497,0.57,1.24,-0.03,1.37
11.507,-0.52,0.56,0.14,0.77
11.517,-2.98,-0.83,-0.27,3.10
11.527,-2.10,-0.33,-0.20,2.13
11.537,-0.22,-0.03,-0.54,0.59
11.547,0.73,-0.37,0.08,0.82
11.557,1.18,-0.14,0.44,1.26
11.567,0.34,-0.12,0.15,0.39
11.578,-0.27,-0.35,-0.42,0.61
11.587,-0.68,-0.63,-0.36,0.99
11.598,-0.68,-0.52,0.32,0.92
11.608,1.33,0.77,1.13,1.91
11.618,1.49,1.11,-0.89,2.06
11.628,0.61,0.76,-0.49,1.09
11.638,0.15,0.63,0.37,0.75
11.648,-2.59,-0.02,-0.02,2.59
11.658,-2.60,-0.12,-0.50,2.65
11.668,-0.56,-0.52,-0.73,1.05
11.678,0.16,-0.43,-0.01,0.46
11.688,1.37,-0.55,0.46,1.54
11.698,1.41,-0.18,0.57,1.53
11.709,-0.37,-0.12,-0.24,0.46
11.719,-0.89,-0.22,-0.58,1.08
11.729,-0.29,0.25,0.13,0.40
11.739,1.15,0.91,0.65,1.60
11.749,1.29,0.66,-0.50,1.54
11.759,0.60,0.28,-0.09,0.67
11.769,-0.23,0.31,0.16,0.42
11.779,-2.34,-0.59,0.01,2.42
11.789,-2.35,-0.10,-0.86,2.50
11.799,-0.51,-0.01,-0.39,0.64
11.809,0.23,-0.35,-0.00,0.42
11.820,1.10,-0.02,0.43,1.18
11.830,1.13,0.03,0.39,1.20
11.840,-0.34,-0.26,-0.60,0.74
11.850,-0.83,-0.68,-0.09,1.07
11.860,0.20,0.27,0.33,0.47
11.870,1.53,0.55,0.47,1.69
11.880,1.22,0.50,-0.56,1.43
11.890,0.22,0.65,0.25,0.73
11.900,-1.22,0.39,-0.15,1.29
11.910,-2.17,0.02,-0.16,2.18
11.920,-2.09,-0.34,-1.05,2.37
11.930,-0.22,-0.26,-0.09,0.35
11.941,1.21,-0.20,0.45,1.30
11.951,1.08,-0.25,0.28,1.14
11.961,0.20,-0.32,0.23,0.44
11.971,-0.43,-0.14,-0.72,0.85
11.981,-0.86,-0.17,-0.22,0.90
11.991,0.46,0.07,0.91,1.03
12.001,1.52,0.55,-0.16,1.62
12.011,1.41,1.11,-0.32,1.82
12.021,0.16,0.49,0.16,0.54
12.031,-1.76,-0.45,-0.34,1.84
12.041,-2.68,-0.07,0.01,2.68
12.051,-1.40,0.42,-0.84,1.68
12.062,-0.01,-0.25,-0.17,0.30
12.072,0.99,-0.47,0.18,1.11
12.082,1.33,-0.19,0.21,1.36
12.092,0.02,-0.49,0.39,0.62
12.102,-0.96,-0.74,-0.54,1.33
12.112,-0.57,0.14,0.05,0.59
12.122,1.42,1.30,0.71,2.06
12.132,1.55,1.00,-0.56,1.93
12.142,0.87,0.66,-0.31,1.14
12.152,0.07,0.68,0.15,0.70
12.162,-2.14,-1.26,0.07,2.48
12.172,-2.46,-0.49,-0.18,2.51
12.182,-1.24,0.04,-0.58,1.37
12.193,0.43,0.17,-0.39,0.60
12.203,1.23,0.68,0.51,1.50
12.213,0.81,-0.35,-0.14,0.89
12.223,0.05,-0.03,0.08,0.10
12.233,-0.70,-0.63,-0.29,0.98
12.243,-1.48,-1.43,-0.42,2.10
12.253,0.44,0.35,1.40,1.51
12.263,2.36,1.47,-0.26,2.79
12.273,1.12,0.89,-0.80,1.64
12.283,0.49,0.79,0.12,0.94
12.294,-1.57,-0.28,-0.19,1.60
12.304,-2.81,-0.57,0.18,2.87
12.314,-1.41,-0.43,-0.76,1.65
12.324,-0.40,-0.43,-0.11,0.60
12.334,0.83,0.34,0.10,0.90
12.344,1.66,0.21,0.08,1.67
12.354,-0.10,-0.49,0.10,0.51
12.364,-0.48,-0.35,-0.18,0.62
12.374,-0.22,-0.62,-0.22,0.70
12.384,0.10,-0.09,0.74,0.75
12.394,1.60,1.18,0.33,2.02
12.404,0.87,1.07,-0.97,1.69
12.414,0.02,0.90,-0.07,0.91
12.425,-0.97,-0.52,-0.01,1.10
12.434,-2.35,-0.91,-0.05,2.52
12.445,-1.14,0.28,-0.23,1.20
12.455,-0.38,-1.07,-0.78,1.38
12.465,0.18,0.34,0.61,0.73
12.475,0.98,0.50,0.14,1.11
12.485,0.40,-0.44,-0.62,0.86
12.495,-0.35,0.12,0.30,0.47
12.505,0.06,-0.63,0.25,0.68
12.515,1.17,0.35,0.15,1.23
12.525,1.27,0.68,0.02,1.44
12.535,-0.13,0.04,-0.47,0.49
12.546,-0.50,0.89,0.15,1.03
12.556,-1.28,0.21,0.17,1.30
12.566,-2.28,-0.37,-1.00,2.52
12.576,-0.63,0.24,-0.37,0.77
12.586,0.56,-0.20,0.06,0.60
12.596,0.55,-0.74,0.34,0.99
12.606,0.49,-0.13,0.50,0.71
12.616,-0.02,-0.31,-0.56,0.64
12.626,-0.41,0.32,-0.38,0.64
12.636,-0.29,-0.08,0.37,0.48
12.647,1.48,0.52,0.45,1.63
12.657,1.48,1.06,-0.29,1.85
12.667,0.14,0.17,-0.27,0.35
12.677,-1.06,-0.07,0.09,1.06
12.687,-2.29,-0.02,0.06,2.29
12.697,-1.57,0.59,-0.85,1.89
12.707,-0.36,0.15,-0.39,0.55
12.717,0.64,-0.16,0.14,0.67
12.727,1.05,-0.42,0.11,1.14
12.737,0.15,-0.68,0.41,0.80
12.747,-0.84,-1.33,-0.43,1.63
12.757,-0.54,-0.42,0.01,0.69
12.767,0.70,0.87,0.19,1.13
12.777,1.46,0.99,0.81,1.94
12.788,1.52,1.29,-0.76,2.13
12.798,0.28,0.66,-0.55,0.90
12.808,-0.97,0.17,0.21,1.00
12.818,-2.71,-1.04,0.12,2.91
12.828,-1.70,-0.14,-0.32,1.74
12.838,-0.26,-0.15,-0.62,0.69
12.848,0.94,0.29,0.23,1.01
12.858,1.08,0.12,0.02,1.08
12.868,0.36,-0.27,0.14,0.47
12.878,-0.58,-0.61,-0.26,0.88
12.888,-1.29,-1.17,-0.27,1.76
12.899,-0.41,-0.08,0.35,0.55
12.909,1.18,0.22,0.47,1.29
12.919,2.24,1.56,0.08,2.73
12.929,0.91,0.97,-0.64,1.47
12.939,-0.48,0.43,-0.19,0.67
12.949,-2.38,0.40,0.25,2.42
12.959,-2.78,-0.65,-0.82,2.97
12.969,-0.65,-0.32,-0.03,0.72
12.979,0.54,-0.56,0.05,0.78
12.989,1.37,-0.38,-0.01,1.43
12.999,0.84,0.24,0.63,1.08
13.009,-0.25,-0.80,-0.53,0.99
13.020,-0.70,-0.76,-0.64,1.22
13.030,-0.62,-0.43,0.60,0.96
13.040,1.17,0.83,1.06,1.78
13.050,1.54,1.14,-0.61,2.01
13.060,0.71,0.97,-0.83,1.46
13.070,-0.50,0.72,0.17,0.90
13.080,-2.62,0.25,0.06,2.64
13.090,-1.90,-0.68,-0.67,2.13
13.100,-0.75,-0.89,-0.12,1.17
13.110,0.61,0.14,0.34,0.72
13.121,1.29,-0.31,-0.13,1.33
13.131,0.44,-0.03,0.10,0.45
13.141,-0.35,-0.36,-0.09,0.50
13.151,-0.42,-0.42,-0.34,0.68
13.161,0.21,0.23,0.44,0.54
13.171,1.34,0.59,0.72,1.63
13.181,0.66,0.38,-0.91,1.19
13.191,0.29,0.70,-0.23,0.79
13.201,-0.28,0.93,0.68,1.19
13.211,-3.02,-0.18,-0.61,3.08
13.221,-1.55,0.17,-0.61,1.68
13.231,0.34,-0.12,-0.60,0.70
13.241,0.50,-0.93,0.30,1.09
13.252,0.84,-0.30,1.03,1.36
13.262,0.09,-0.58,-0.21,0.62
13.272,-0.29,-0.07,-0.60,0.67
13.282,-0.46,-0.01,-0.23,0.52
13.292,0.45,0.20,0.64,0.81
13.302,1.72,1.10,0.35,2.07
13.312,0.83,0.41,-0.69,1.16
13.322,-0.16,0.36,-0.08,0.40
13.332,-1.27,0.25,0.49,1.38
13.342,-2.42,-0.08,-0.53,2.48
13.352,-1.19,0.15,-0.77,1.43
13.362,0.05,-0.15,-0.23,0.28
13.373,0.74,-0.24,0.21,0.81
13.383,0.75,-0.51,0.55,1.06
13.393,-0.20,-0.82,-0.14,0.86
13.403,-0.56,-0.68,-0.52,1.02
13.413,0.35,0.31,0.19,0.51
13.423,0.97,0.60,0.76,1.37
13.433,1.38,1.07,-0.20,1.76
13.443,0.87,1.05,-0.64,1.50
13.453,-0.27,0.62,-0.03,0.68
13.463,-2.04,-0.77,0.13,2.19
13.473,-2.01,-0.38,-0.17,2.05
13.483,-0.91,-0.24,-0.64,1.13
13.494,0.32,0.07,0.13,0.35
13.504,0.74,-0.07,-0.08,0.74
13.514,0.49,-0.14,0.14,0.53
13.524,0.09,-0.15,-0.01,0.17
13.534,-0.85,-0.97,-0.34,1.34
13.544,-1.06,-0.66,-0.03,1.25
13.554,1.43,0.24,0.82,1.66
13.564,1.80,1.24,0.05,2.19
13.574,0.70,0.59,-0.67,1.14
13.584,0.24,0.79,-0.11,0.84
13.595,-1.64,0.60,0.23,1.76
13.605,-3.03,-0.31,-0.36,3.07
13.615,-1.31,-0.40,-1.06,1.73
13.625,0.05,-0.49,0.15,0.51
13.635,0.77,-0.49,0.34,0.97
13.645,0.40,-0.84,0.34,0.99
13.655,0.39,-0.32,-0.25,0.56
13.665,-0.19,-0.66,-0.58,0.90
13.675,-1.03,-0.66,-0.32,1.26
13.685,-0.88,-0.70,0.20,1.14
13.695,-0.13,-0.67,-0.06,0.68
13.705,-0.41,-0.67,-0.35,0.86
13.715,-0.53,-0.66,-0.18,0.87
13.725,-1.47,0.09,-0.18,1.48
13.736,-1.23,1.45,0.09,1.90
13.746,2.75,3.52,2.77,5.25
13.756,3.65,3.11,-3.09,5.70
13.766,1.07,1.08,-1.05,1.85
13.776,-0.51,0.97,1.90,2.19
13.786,-1.04,-1.91,-0.55,2.24
13.796,-1.70,-2.63,0.41,3.16
13.806,1.07,-0.94,1.61,2.15
13.816,1.52,-0.71,-0.63,1.79
13.826,0.23,0.44,-1.88,1.94
13.836,0.35,1.39,1.51,2.08
13.846,-0.50,1.29,-0.01,1.39
13.857,-2.73,0.08,-0.59,2.80
13.867,-1.02,1.12,-0.90,1.76
13.877,-0.02,-0.63,-0.80,1.01
13.887,0.13,-0.90,0.90,1.28
13.897,0.87,-0.75,0.93,1.48
13.907,0.12,-1.08,-0.31,1.14
13.917,-0.29,0.27,-0.48,0.62
13.927,-0.38,-0.66,-0.15,0.78
13.937,0.90,0.42,0.45,1.09
13.947,1.84,1.57,0.60,2.49
13.958,0.86,0.46,-0.80,1.26
13.968,-0.08,0.42,0.03,0.43
13.978,-1.00,-0.77,-0.12,1.27
13.988,-1.10,-1.46,-0.23,1.84
13.998,-0.07,-1.06,0.56,1.20
14.008,0.66,-1.32,-0.32,1.51
14.018,0.98,-0.92,-0.14,1.35
14.028,0.72,-0.53,0.24,0.93
14.038,0.39,-0.42,0.03,0.57
14.048,0.19,-0.40,-0.23,0.50
14.058,0.18,0.05,0.82,0.84
14.068,-2.16,3.54,1.49,4.41
14.078,-2.27,2.87,-3.66,5.17
14.089,0.11,2.69,-1.22,2.95
14.099,-0.79,1.63,1.17,2.16
14.109,-0.16,-1.64,-0.37,1.69
14.119,0.26,-1.01,0.88,1.36
14.129,-1.04,-1.64,-0.10,1.94
14.139,-0.47,-1.75,-0.14,1.82
14.149,-0.11,-0.24,-0.31,0.41
14.159,-0.13,0.43,-0.03,0.45
14.169,0.51,0.67,-0.15,0.85
14.179,-0.02,0.43,0.09,0.44
14.189,0.95,0.76,0.65,1.38
14.199,1.23,0.65,-0.47,1.47
14.210,0.45,0.41,-0.40,0.73
14.220,-0.06,-0.47,0.39,0.61
14.230,-1.51,-0.85,-0.01,1.73
14.240,-1.94,-0.23,0.08,1.95
14.250,-1.22,0.02,-0.78,1.45
14.260,-0.10,0.45,-0.55,0.72
14.270,0.74,0.64,0.27,1.02
14.280,1.22,0.15,0.04,1.23
14.290,-0.08,-0.47,0.22,0.53
14.300,-0.82,-0.82,-0.30,1.20
14.311,-0.39,-1.11,-0.19,1.19
14.321,0.43,-0.11,0.97,1.07
14.331,1.44,0.88,0.37,1.73
14.341,1.24,1.06,-1.26,2.06
14.351,0.25,1.29,0.25,1.34
14.361,-1.05,0.29,-0.12,1.09
14.371,-2.41,-0.64,-0.13,2.49
14.381,-1.30,0.13,-0.25,1.33
14.391,-0.16,-1.07,-0.87,1.39
14.401,0.15,-0.37,0.76,0.86
14.411,0.94,0.25,0.47,1.08
14.421,0.25,-0.34,-0.55,0.69
14.431,-0.75,0.20,-0.25,0.81
14.442,-0.21,-0.36,-0.01,0.42
14.452,1.43,0.66,0.61,1.69
14.462,1.64,0.61,0.16,1.76
14.472,0.33,-0.11,-0.47,0.59
14.482,-0.80,0.52,0.02,0.95
14.492,-1.31,0.00,-0.19,1.32
14.502,-1.88,-0.73,-0.30,2.04
14.512,-0.74,0.13,-0.19,0.77
14.522,0.48,0.25,-0.51,0.74
14.532,0.30,-0.47,0.22,0.60
14.542,0.06,-0.13,0.40,0.43
14.552,0.03,-0.12,-0.16,0.20
14.563,-0.55,-0.15,-0.53,0.78
14.572,0.04,-0.41,0.36,0.55
14.583,1.59,0.64,0.68,1.84
14.593,1.63,1.12,-0.40,2.01
14.603,0.36,0.43,-0.68,0.88
14.613,-1.05,2.14,-1.06,2.61
14.623,-1.32,4.36,-2.62,5.25
14.633,-1.57,3.88,-1.87,4.58
14.643,-0.77,3.74,-1.09,3.97
14.653,-0.23,4.10,-2.01,4.57
14.663,1.30,-1.54,1.32,2.41
14.673,-4.16,-11.64,11.07,16.60
14.683,0.06,3.11,-10.02,10.49
14.694,3.30,0.05,2.56,4.18
14.704,-0.84,-7.24,8.17,10.95
14.714,0.09,0.81,0.12,0.82
14.724,1.17,0.30,-3.54,3.74
14.734,0.10,-1.81,-4.56,4.90
14.744,1.02,0.61,-1.01,1.56
14.754,1.04,-0.65,3.50,3.70
14.764,-0.09,-0.17,0.81,0.83
14.774,-2.14,0.29,1.29,2.52
14.784,-1.14,1.35,-1.67,2.43
14.794,-0.57,0.23,-3.21,3.27
14.805,0.06,-0.05,0.37,0.38
14.815,1.34,-0.46,1.28,1.91
14.825,-0.37,-1.66,1.11,2.03
14.835,-0.74,-0.73,0.30,1.08
14.845,-0.05,-0.84,-1.06,1.35
14.855,0.39,0.94,-0.48,1.12
14.865,1.79,1.53,0.85,2.50
14.875,1.28,0.93,-0.45,1.64
14.885,-0.06,0.97,0.24,1.00
14.895,-1.74,0.05,-0.17,1.75
14.905,-2.96,-0.70,-0.81,3.15
14.916,-1.13,-0.53,-0.36,1.29
14.926,0.78,-0.29,0.26,0.87
14.936,1.12,-0.29,0.42,1.24
14.946,0.97,-0.10,0.15,0.98
14.956,-0.07,-0.28,-0.52,0.60
14.966,-1.48,-0.64,-0.35,1.65
14.976,-0.90,-0.22,0.04,0.92
14.986,0.38,-0.41,0.63,0.84
14.996,2.39,1.61,0.78,2.99
15.006,1.58,0.86,-1.22,2.17
15.016,-0.06,0.21,-0.20,0.29
15.026,-1.48,1.19,0.55,1.98
15.037,-3.38,-1.02,-0.60,3.59
15.047,-1.21,-0.05,-0.85,1.48
15.057,0.49,0.06,0.66,0.82
15.067,1.22,-0.85,-0.50,1.57
15.077,1.17,0.47,0.85,1.52
15.087,-0.09,-0.72,-0.18,0.75
15.097,-0.66,-0.83,-0.77,1.31
15.107,-0.69,-0.36,0.35,0.85
15.117,0.45,0.02,0.88,0.99
15.127,1.51,1.50,-0.15,2.13
15.137,1.31,1.38,-0.72,2.04
15.147,-0.13,0.63,-0.32,0.72
15.158,-2.09,0.37,0.36,2.15
15.168,-2.00,-0.31,-0.60,2.11
15.178,-1.20,-1.25,-0.63,1.85
15.188,0.39,0.06,1.00,1.07
15.198,0.84,-0.78,-0.57,1.28
15.208,0.65,0.43,0.22,0.81
15.218,0.14,-0.27,-0.07,0.32
15.228,-0.98,-0.82,-0.54,1.39
15.238,-0.04,0.28,0.44,0.52
15.248,1.36,0.26,0.78,1.59
15.259,0.93,0.74,-0.57,1.32
15.268,0.60,0.56,-0.40,0.91
15.279,-0.23,0.95,0.07,0.98
15.289,-2.42,0.11,0.48,2.47
15.299,-1.88,0.16,-1.20,2.24
15.309,-0.38,-0.54,-0.49,0.82
15.319,0.71,0.13,0.25,0.76
15.329,0.67,-1.08,0.45,1.35
15.339,0.26,-0.03,0.33,0.42
15.349,0.08,-0.15,-0.36,0.40
15.359,-0.53,-0.67,-0.51,0.99
15.369,-0.12,0.48,0.23,0.55
15.379,1.31,0.25,1.04,1.69
15.390,1.52,1.43,-0.92,2.28
15.400,0.06,-0.11,0.03,0.13
15.410,-0.48,0.55,0.21,0.76
15.420,-1.89,0.28,-0.51,1.98
15.430,-2.07,-0.50,0.01,2.13
15.440,-0.17,0.14,-0.97,1.00
15.450,-0.02,-0.54,0.23,0.59
15.460,1.22,0.21,0.56,1.35
15.470,0.22,-0.94,0.07,0.96
15.480,-0.68,-0.19,-0.33,0.78
15.490,-0.53,-0.80,-0.51,1.08
15.500,0.19,0.22,0.50,0.58
15.511,1.51,1.03,0.82,2.00
15.521,1.57,0.42,-0.54,1.72
15.531,0.50,1.01,-0.66,1.31
15.541,-0.81,0.18,0.47,0.96
15.551,-2.58,-0.30,-0.30,2.62
15.561,-2.24,-0.37,-0.44,2.31
15.571,0.29,0.08,-0.50,0.58
15.581,0.73,-0.17,0.22,0.78
15.591,0.66,-0.46,0.20,0.83
15.601,0.92,-0.18,0.15,0.95
15.611,-0.72,-0.67,-0.09,0.99
15.621,-1.83,-0.71,-0.58,2.05
15.632,0.62,-0.10,0.54,0.83
15.642,2.29,1.75,0.79,2.99
15.652,1.20,0.57,-1.22,1.80
15.662,0.68,0.42,0.33,0.86
15.672,-0.76,1.18,0.13,1.41
15.682,-3.56,-0.95,-0.18,3.69
15.692,-1.65,0.18,-1.02,1.95
15.702,-0.30,-0.41,-0.10,0.52
15.712,1.04,-0.07,0.04,1.04
15.722,1.14,-0.45,0.77,1.45
15.732,0.44,-0.17,0.09,0.48
15.742,-0.27,-0.44,-0.73,0.90
15.753,-0.80,-0.35,-0.15,0.88
15.763,0.18,-0.18,0.91,0.95
15.773,1.34,1.24,-0.07,1.83
15.783,1.22,1.07,-0.41,1.68
15.793,0.40,0.67,-0.30,0.84
15.803,-1.25,0.19,0.37,1.32
15.813,-2.29,-0.09,-0.27,2.31
15.823,-1.51,-0.68,-0.93,1.90
15.833,-0.13,0.07,0.17,0.23
15.843,0.53,-0.71,-0.02,0.89
15.853,1.17,-0.05,0.61,1.32
15.864,0.25,0.22,-0.07,0.34
15.874,-0.86,-1.00,-0.61,1.45
15.884,-0.13,0.64,0.08,0.66
15.894,0.69,0.02,0.86,1.11
15.904,1.40,0.97,-0.60,1.80
15.914,0.89,0.62,0.06,1.09
15.924,-0.26,0.66,0.19,0.73
15.934,-1.68,-0.43,-0.63,1.85
15.944,-2.05,-0.56,0.30,2.15
15.954,-0.84,0.15,-1.23,1.49
15.964,-0.11,-0.79,0.34,0.87
15.974,0.91,0.65,0.22,1.14
15.984,0.34,-0.84,0.28,0.95
15.995,0.33,0.81,-0.33,0.94
16.005,-0.45,-0.82,-0.43,1.03
16.015,-0.48,-0.46,0.23,0.70
16.025,1.15,0.86,0.93,1.71
16.035,1.37,0.42,-0.48,1.51
16.045,0.56,0.84,-0.27,1.04
16.055,-0.12,0.34,0.11,0.38
16.065,-1.34,-0.16,-0.42,1.41
16.075,-1.89,0.27,0.47,1.97
16.085,-1.16,-0.30,-1.02,1.57
16.095,-0.14,-0.46,-0.35,0.60
16.105,0.75,0.29,0.64,1.03
16.116,0.65,-1.09,-0.28,1.30
16.126,-0.65,-0.51,0.73,1.10
16.136,-0.14,-0.02,-0.88,0.89
16.146,-0.14,-0.59,-0.05,0.61
16.156,1.05,1.41,1.03,2.04
16.166,1.37,0.26,-0.40,1.46
16.176,0.78,1.18,-0.49,1.50
16.186,-0.31,0.44,0.32,0.62
16.196,-2.05,-0.72,-0.35,2.20
16.206,-2.29,-0.18,0.00,2.29
16.216,-0.33,0.02,-0.79,0.85
16.226,0.26,-0.30,-0.11,0.41
16.237,0.91,-0.18,0.51,1.06
16.247,0.62,-0.45,-0.01,0.76
16.257,-0.58,-0.22,0.12,0.63
16.267,-1.04,-0.27,-0.50,1.19
16.277,0.26,-0.14,0.18,0.34
16.287,1.64,1.13,0.67,2.10
16.297,1.49,0.81,-0.43,1.75
16.307,0.52,0.38,-0.33,0.72
16.317,-0.39,0.60,0.50,0.87
16.327,-2.44,-0.97,-0.44,2.66
16.337,-2.48,-0.18,-0.41,2.52
16.348,-0.36,0.50,-0.45,0.76
16.358,0.67,-0.24,-0.20,0.74
16.368,1.06,0.26,0.58,1.24
16.378,0.73,-0.59,0.06,0.94
16.388,-0.28,-0.16,-0.34,0.47
16.398,-0.96,-0.69,-0.16,1.20
16.408,-0.66,-0.85,0.38,1.14
16.418,1.73,1.60,0.85,2.51
16.428,1.92,1.33,-0.81,2.47
16.438,0.35,0.48,-0.49,0.77
16.448,-0.57,0.14,0.38,0.70
16.458,-1.85,-0.57,-0.26,1.95
16.469,-2.20,-0.62,0.03,2.29
16.479,-1.02,-0.42,-0.71,1.31
16.489,0.50,0.21,0.04,0.55
16.499,1.31,0.69,0.07,1.48
16.509,0.42,-0.10,0.18,0.46
16.519,-0.54,-0.49,-0.29,0.79
16.529,-0.50,-0.36,-0.22,0.65
16.539,0.53,-0.74,0.57,1.08
16.549,0.97,0.33,0.64,1.21
16.559,1.18,1.34,-0.38,1.83
16.569,0.42,1.29,-0.51,1.45
16.580,-1.07,0.15,-0.42,1.16
16.590,-1.47,-0.70,0.07,1.63
16.600,-1.45,-0.61,0.02,1.57
16.610,-0.86,-0.37,-0.42,1.03
16.620,0.09,-0.59,-0.03,0.60
16.630,0.78,0.07,0.05,0.78
16.640,0.67,0.88,0.13,1.12
16.650,0.04,-0.04,-0.38,0.38
16.660,-0.61,-0.55,-0.12,0.83
16.670,0.28,-0.01,0.51,0.58
16.680,1.39,-0.02,0.29,1.42
16.691,0.74,0.31,-0.30,0.85
16.701,0.58,0.76,0.12,0.96
16.711,-1.09,0.24,-0.35,1.17
16.721,-1.87,0.74,0.08,2.01
16.731,-1.37,0.00,-0.80,1.59
16.741,-0.55,-0.24,-0.55,0.81
16.751,0.91,0.17,0.52,1.06
16.761,0.29,-1.53,0.16,1.57
16.771,-0.12,0.14,0.35,0.40
16.781,0.14,-0.49,-0.43,0.66
16.791,-0.79,-0.20,-0.65,1.04
16.801,0.12,-0.03,0.77,0.78
16.815,1.88,0.75,0.93,2.23
16.821,1.33,0.56,1.59,2.15
16.832,0.05,0.47,-0.42,0.63
16.842,-1.03,0.62,-3.15,3.37
16.852,-3.25,-0.59,-2.90,4.40
16.862,-0.89,1.04,0.05,1.36
