time,ax,ay,az,atotal
0.000,1.07,0.46,-1.16,1.64
0.010,0.69,-0.66,1.44,1.72
0.020,0.44,0.14,0.80,0.92
0.030,-0.58,-0.93,0.19,1.11
0.040,-0.42,-0.62,-0.59,0.95
0.050,1.26,1.15,-0.05,1.71
0.061,1.21,1.26,-0.23,1.76
0.071,0.57,0.55,0.04,0.80
0.081,0.03,0.49,0.62,0.79
0.091,-1.71,-0.61,-0.46,1.87
0.101,-2.02,-0.59,-0.79,2.25
0.111,-1.07,-0.23,-0.47,1.19
0.121,-0.11,-0.06,0.41,0.43
0.131,0.98,0.37,0.31,1.10
0.141,0.82,-0.03,-0.02,0.83
0.151,0.16,-0.11,-0.61,0.64
0.161,-0.48,-0.59,0.01,0.76
0.172,0.52,-0.21,0.86,1.03
0.181,1.16,0.42,0.39,1.29
0.192,0.58,0.83,-0.62,1.19
0.202,0.46,1.21,-0.22,1.32
0.212,-0.56,0.14,-0.32,0.66
0.222,-1.59,-0.75,0.25,1.77
0.232,-1.26,-0.36,-0.17,1.32
0.242,-0.85,-0.44,-0.51,1.09
0.252,-0.24,-0.29,-0.18,0.42
0.262,0.47,-0.16,0.14,0.52
0.272,0.96,0.58,0.37,1.18
0.282,0.63,0.28,-0.41,0.81
0.293,-0.56,-0.49,-0.13,0.76
0.303,0.12,0.11,0.40,0.43
0.313,1.33,0.22,0.33,1.39
0.323,0.64,0.27,-0.35,0.78
0.333,0.35,0.60,0.09,0.70
0.343,-0.46,0.11,-0.20,0.51
0.353,-1.62,-0.04,0.10,1.62
0.363,-1.72,0.23,-0.61,1.84
0.373,-0.57,0.03,-0.88,1.05
0.383,0.37,0.12,0.70,0.80
0.393,0.65,-0.63,-0.26,0.94
0.403,0.22,-0.62,0.66,0.93
0.414,0.25,-0.15,-0.35,0.45
0.424,-0.61,-0.65,-0.63,1.09
0.434,-0.01,0.18,0.85,0.87
0.444,1.38,0.66,0.41,1.59
0.454,1.20,0.99,-0.70,1.70
0.464,0.50,0.64,0.05,0.81
0.474,-0.82,0.23,-0.07,0.85
0.484,-2.31,-0.37,0.05,2.34
0.494,-1.39,0.23,-0.38,1.46
0.504,-0.27,-0.07,-0.71,0.76
0.514,0.52,-0.29,0.30,0.66
0.525,1.09,-0.05,0.21,1.11
0.534,0.31,-0.85,0.12,0.92
0.545,-0.79,-0.34,-0.12,0.87
0.555,-0.74,-1.09,-0.42,1.38
0.565,0.35,0.30,0.38,0.59
0.575,1.66,1.38,1.07,2.41
0.585,1.29,0.50,-1.08,1.75
0.595,0.89,0.97,-0.36,1.37
0.605,-0.61,0.44,0.50,0.90
0.615,-2.86,0.05,0.06,2.86
0.625,-2.28,-0.20,-0.88,2.45
0.635,-0.03,-0.46,-0.70,0.84
0.645,0.90,0.31,0.52,1.09
0.656,1.00,-0.86,0.33,1.36
0.666,0.57,-0.39,0.22,0.73
0.676,-0.12,-0.46,-0.28,0.55
0.686,-0.82,-0.79,-0.46,1.23
0.696,-1.06,-0.37,0.48,1.22
0.706,1.89,1.85,0.26,2.66
0.716,1.91,0.61,0.19,2.01
0.726,0.32,1.09,-0.78,1.38
0.736,-0.10,0.42,0.74,0.85
0.746,-2.34,-0.18,-0.45,2.39
0.756,-2.58,-0.30,-0.93,2.76
0.767,-0.36,-0.60,-0.28,0.75
0.777,0.60,0.00,0.30,0.67
0.787,1.26,-0.34,0.67,1.47
0.797,0.56,-0.66,-0.21,0.89
0.807,-0.10,-0.10,-0.29,0.33
0.817,-0.41,-0.61,-0.28,0.79
0.827,-0.27,-0.18,0.60,0.68
0.837,1.31,1.15,0.62,1.85
0.847,1.29,0.86,-0.86,1.77
0.857,0.37,1.08,-0.33,1.19
0.867,-1.01,0.74,0.73,1.45
0.877,-2.32,-0.15,-0.84,2.48
0.888,-1.53,-0.45,-0.74,1.76
0.898,-0.12,-0.47,0.21,0.53
0.908,0.39,-0.92,0.19,1.01
0.918,1.13,-0.33,0.55,1.30
0.928,0.61,0.17,-0.12,0.64
0.938,-0.34,-0.13,-0.66,0.75
0.948,-0.11,-0.01,0.05,0.12
0.958,0.70,0.55,0.76,1.17
0.968,0.85,0.49,-0.05,0.98
0.978,0.85,0.78,-0.32,1.19
0.988,0.24,0.46,-0.20,0.56
0.998,-1.27,-0.31,0.20,1.32
1.009,-2.23,0.07,-0.25,2.24
1.019,-1.29,0.02,-0.71,1.47
1.029,0.18,0.18,-0.16,0.30
1.039,0.58,-0.74,0.06,0.94
1.049,0.74,-0.30,0.73,1.08
1.059,0.47,-0.15,-0.15,0.52
1.069,-0.72,-0.56,-0.58,1.08
1.079,-0.50,-0.21,0.21,0.58
1.089,0.90,0.39,0.50,1.10
1.099,1.46,1.15,0.08,1.86
1.109,0.93,0.62,-0.45,1.20
1.119,-0.09,0.15,-0.16,0.23
1.130,-1.07,-0.42,0.32,1.19
1.140,-1.97,-0.02,0.09,1.97
1.150,-1.26,0.26,-0.97,1.61
1.160,-0.16,-0.28,-0.49,0.59
1.170,0.44,0.29,0.46,0.70
1.180,1.10,-0.25,0.21,1.15
1.190,-0.03,-0.73,0.09,0.73
1.200,-0.44,-0.86,-0.36,1.03
1.210,-0.01,-0.40,-0.09,0.41
1.220,0.99,0.63,1.20,1.68
1.230,1.57,1.06,-0.58,1.98
1.241,0.82,1.00,-0.52,1.39
1.251,-0.37,0.67,0.21,0.79
1.261,-1.90,-0.16,0.03,1.91
1.271,-2.42,-0.09,-0.32,2.44
1.281,-0.71,0.03,-0.83,1.09
1.291,0.45,-0.42,-0.02,0.61
1.301,0.80,-0.40,0.48,1.01
1.311,0.78,-0.67,0.30,1.07
1.321,0.22,-0.30,-0.12,0.39
1.331,-1.03,-1.15,-0.39,1.60
1.341,-0.17,0.17,0.03,0.24
1.351,1.80,1.51,1.45,2.77
1.361,1.30,0.94,-1.46,2.17
1.372,0.32,0.66,-0.12,0.74
1.382,0.17,0.96,0.72,1.21
1.392,-1.88,-0.42,-0.23,1.94
1.402,-2.40,-0.21,-0.51,2.47
1.412,-1.09,-0.43,-1.08,1.60
1.422,0.35,-0.37,0.36,0.62
1.432,0.86,-0.40,0.55,1.09
1.442,0.80,-0.63,0.26,1.05
1.452,0.31,0.20,-0.12,0.38
1.462,-0.28,-0.17,-0.63,0.71
1.472,0.09,0.03,0.43,0.44
1.483,1.09,1.23,0.73,1.80
1.493,1.00,0.89,-1.06,1.71
1.503,0.24,0.31,0.63,0.74
1.513,-0.26,1.09,-0.13,1.13
1.523,-2.21,-1.74,-0.32,2.83
1.533,-1.78,0.05,-0.54,1.86
1.543,-0.54,-0.25,-0.38,0.70
1.553,-0.13,-0.78,0.21,0.82
1.563,1.49,0.87,0.53,1.80
1.573,1.00,-0.38,-0.19,1.08
1.583,-0.20,0.05,-0.33,0.39
1.593,-0.39,-0.21,0.18,0.47
1.604,0.16,-0.01,0.18,0.24
1.614,0.87,0.69,0.42,1.19
1.624,1.04,0.61,-0.48,1.30
1.634,0.64,0.62,-0.22,0.92
1.644,-0.37,0.34,0.41,0.65
1.654,-1.69,-0.43,0.01,1.74
1.664,-2.17,-0.16,-0.89,2.35
1.674,-0.56,0.06,-0.51,0.76
1.684,0.27,-0.52,0.11,0.60
1.694,0.40,-0.41,0.56,0.80
1.704,0.69,-0.26,0.18,0.76
1.715,-0.01,-0.36,-0.54,0.65
1.725,-0.40,-0.40,-0.04,0.57
1.735,0.35,-0.24,0.39,0.58
1.745,1.29,0.94,0.68,1.74
1.755,0.98,0.82,-0.80,1.51
1.765,0.42,0.98,-0.17,1.08
1.775,-0.67,0.16,0.13,0.70
1.785,-1.52,-0.24,-0.02,1.53
1.795,-1.45,0.27,-0.05,1.48
1.805,-1.31,-1.31,-1.15,2.18
1.815,0.49,0.12,0.05,0.50
1.825,0.71,-0.68,0.62,1.16
1.835,0.32,-0.45,0.19,0.58
1.846,0.10,0.14,-0.02,0.18
1.856,-0.22,-0.26,-0.38,0.51
1.866,0.93,0.86,0.37,1.31
1.876,1.31,0.42,0.30,1.41
1.886,0.91,1.05,-0.47,1.47
1.896,-0.13,0.47,0.12,0.50
1.906,-1.57,-0.36,-0.12,1.62
1.916,-1.90,0.18,-0.03,1.91
1.926,-1.23,-0.31,-0.96,1.59
1.936,0.08,-0.12,-0.20,0.24
1.946,0.55,-0.33,0.42,0.76
1.957,0.75,-0.50,0.25,0.94
1.967,0.39,-0.09,-0.05,0.41
1.977,-0.81,-1.08,-0.25,1.37
1.987,-0.21,0.60,0.20,0.67
1.997,1.27,1.26,0.69,1.92
2.007,1.44,0.56,-0.97,1.82
2.017,0.85,0.89,0.15,1.24
2.027,-0.06,0.26,0.34,0.44
2.037,-1.55,-1.06,-0.34,1.91
2.047,-2.36,-0.38,0.12,2.39
2.057,-1.34,-0.13,-0.95,1.65
2.068,0.45,0.48,-0.28,0.71
2.078,0.67,0.32,0.56,0.93
2.088,0.96,-0.11,-0.16,0.98
2.098,0.31,0.01,0.15,0.34
2.108,-0.56,-0.79,-0.42,1.06
2.118,-0.48,-1.04,0.24,1.17
2.128,1.35,1.06,1.02,2.00
2.138,1.54,1.12,-0.56,1.99
2.148,0.40,0.86,-0.61,1.13
2.158,-0.26,0.81,0.15,0.87
2.168,-1.60,-0.86,-0.24,1.83
2.178,-2.05,-0.93,-0.02,2.26
2.189,-0.79,-0.01,-0.20,0.81
2.198,-0.09,-0.35,-0.48,0.60
2.209,0.94,0.70,0.46,1.25
2.219,1.13,0.33,-0.29,1.21
2.229,-0.15,-0.37,0.04,0.41
2.239,-0.64,-0.39,-0.14,0.76
2.249,0.01,-0.74,0.10,0.75
2.259,0.83,-0.01,0.84,1.18
2.269,1.46,1.04,-0.12,1.80
2.279,0.51,0.91,-0.85,1.34
2.289,0.10,0.92,0.36,0.99
2.299,-1.04,-0.24,-0.16,1.08
2.310,-2.19,-1.00,-0.30,2.43
2.319,-0.79,0.23,-0.18,0.84
2.330,-0.18,-0.68,-0.65,0.96
2.340,-0.53,-0.66,0.58,1.03
2.350,1.14,0.69,0.32,1.37
2.360,0.46,-0.08,-0.63,0.79
2.370,-0.40,-0.21,0.05,0.45
2.380,0.12,-0.42,0.01,0.44
2.390,1.03,0.13,0.82,1.32
2.400,1.31,1.03,-0.09,1.67
2.410,0.01,0.05,-0.56,0.56
2.420,-0.14,0.91,-0.08,0.92
2.431,-0.98,0.02,0.27,1.01
2.441,-1.92,-0.22,-0.35,1.97
2.451,-0.75,-0.22,-0.66,1.02
2.461,0.19,-0.04,-0.17,0.25
2.471,0.30,-0.53,0.45,0.75
2.481,0.40,-0.47,0.31,0.69
2.491,0.14,0.03,-0.12,0.19
2.501,-0.48,-0.53,-0.63,0.95
2.511,0.18,0.12,0.35,0.41
2.521,1.13,0.38,0.80,1.44
2.531,1.37,0.87,-0.51,1.70
2.542,0.71,0.64,-0.06,0.96
2.552,-0.66,0.41,0.05,0.77
2.562,-2.26,-0.09,-0.05,2.26
2.572,-1.65,0.23,-0.60,1.77
2.582,-0.46,0.16,-0.57,0.75
2.592,0.27,-0.35,-0.04,0.45
2.602,1.08,-0.39,0.62,1.30
2.612,0.77,-0.32,0.17,0.85
2.622,-0.59,-1.18,-0.24,1.34
2.632,-1.03,-0.50,-0.38,1.20
2.642,0.38,0.50,0.38,0.73
2.652,1.19,0.87,0.57,1.58
2.663,1.43,1.15,-0.48,1.90
2.673,0.88,0.51,-0.45,1.11
2.683,-0.04,0.29,0.20,0.36
2.693,-2.24,0.05,0.60,2.32
2.703,-2.56,-0.60,-0.80,2.75
2.713,-0.23,-0.14,-1.15,1.19
2.723,0.26,0.45,0.68,0.85
2.733,0.80,-0.79,-0.02,1.13
2.743,0.83,-0.47,0.55,1.10
2.753,-0.09,-0.09,-0.17,0.22
2.763,-0.75,-1.21,-0.77,1.61
2.773,-0.46,-0.06,0.38,0.60
2.784,1.28,0.55,0.92,1.66
2.794,1.85,1.51,-0.12,2.39
2.804,0.70,1.22,-0.80,1.62
2.814,-0.65,0.16,0.10,0.68
2.824,-1.67,0.42,-0.38,1.76
2.834,-2.74,-1.05,0.01,2.94
2.844,-0.22,-0.06,-0.69,0.72
2.854,0.24,-0.75,0.38,0.87
2.864,1.48,-0.01,0.00,1.48
2.874,0.62,-0.20,0.43,0.78
2.884,-0.26,-0.26,-0.52,0.64
2.894,-0.29,-0.37,-0.25,0.53
2.905,-0.40,-0.20,0.45,0.63
2.915,1.07,0.71,0.61,1.42
2.925,1.62,1.08,-0.58,2.03
2.935,0.89,1.09,-0.16,1.41
2.945,-0.72,0.32,0.20,0.81
2.955,-2.59,-0.15,-0.42,2.63
2.965,-1.71,-0.23,-0.75,1.88
2.975,-0.77,-1.01,-0.13,1.28
2.985,0.43,0.02,0.88,0.98
2.995,1.34,-0.24,-0.40,1.42
3.005,0.53,0.12,-0.08,0.55
3.015,-0.46,-0.37,-0.02,0.59
3.026,-0.38,-1.01,-0.39,1.15
3.036,-0.09,0.12,0.55,0.57
3.046,1.31,0.63,1.02,1.77
3.056,1.39,1.02,-0.90,1.95
3.066,0.03,0.42,-0.64,0.76
3.076,-0.18,1.05,0.27,1.10
3.086,-2.09,0.10,0.32,2.11
3.096,-2.11,-0.52,-0.80,2.31
3.106,-0.12,0.19,-0.33,0.40
3.116,0.72,-0.59,-0.12,0.94
3.126,0.65,-0.53,0.65,1.06
3.136,0.16,-0.64,0.40,0.77
3.147,-0.34,-0.27,-0.87,0.97
3.157,-0.30,-0.41,0.16,0.53
3.167,0.70,0.41,0.20,0.83
3.177,1.55,1.03,0.81,2.03
3.187,1.03,1.11,-0.88,1.75
3.197,-0.30,0.30,-0.20,0.47
3.207,-0.59,0.41,0.28,0.77
3.217,-1.68,-0.44,0.01,1.74
3.227,-1.76,-0.01,-0.70,1.90
3.237,-0.53,-0.52,-0.70,1.02
3.247,0.37,-0.20,0.50,0.66
3.258,1.08,-0.15,0.38,1.16
3.267,0.23,-0.95,-0.04,0.98
3.278,-0.25,-0.34,-0.30,0.52
3.288,0.03,0.30,0.17,0.35
3.298,0.88,0.51,0.54,1.15
3.308,1.12,1.08,-0.18,1.57
3.318,0.81,0.78,-0.52,1.24
3.328,0.22,0.31,0.13,0.41
3.339,-1.34,-0.24,0.43,1.43
3.348,-2.51,-0.74,-0.32,2.63
3.358,-0.92,0.16,-1.05,1.40
3.368,-0.02,0.36,-0.00,0.36
3.379,0.45,-0.38,0.16,0.61
3.389,0.86,-0.16,0.36,0.94
3.399,0.36,-0.45,0.14,0.59
3.409,-0.54,-0.86,-0.64,1.20
3.419,-0.33,-0.44,0.30,0.63
3.429,1.51,1.02,1.08,2.12
3.439,1.39,1.10,-0.75,1.92
3.449,0.46,0.96,-0.44,1.16
3.459,-0.23,0.76,0.26,0.84
3.470,-1.73,-0.57,-0.12,1.83
3.479,-2.26,-0.40,-0.09,2.30
3.490,-1.18,-0.54,-1.08,1.68
3.500,0.76,0.02,0.40,0.85
3.510,0.93,0.02,0.35,1.00
3.520,0.52,-0.51,-0.07,0.73
3.530,0.41,0.34,-0.00,0.54
3.540,-0.41,-0.28,-0.36,0.61
3.550,-0.68,-0.39,0.06,0.79
3.560,1.35,1.03,1.05,2.00
3.570,1.56,0.68,-0.76,1.86
3.580,0.73,0.91,-0.13,1.17
3.590,-0.36,0.05,0.26,0.45
3.600,-2.03,-0.71,-0.46,2.20
3.611,-2.35,0.15,0.05,2.36
3.620,-0.69,-0.40,-0.82,1.14
3.631,0.11,-0.19,0.12,0.25
3.641,1.05,0.26,0.29,1.12
3.651,0.95,-0.31,-0.11,1.01
3.661,-0.18,-0.12,0.14,0.27
3.671,-0.60,-0.97,-0.34,1.19
3.681,-0.38,-0.23,0.09,0.45
3.691,1.19,0.71,1.12,1.78
3.701,1.35,0.70,-0.87,1.75
3.712,0.62,0.83,-0.29,1.08
3.721,0.11,0.80,0.34,0.88
3.731,-1.49,-0.19,-0.14,1.50
3.741,-2.22,-0.51,-0.27,2.29
3.752,-0.90,-0.13,-0.82,1.22
3.762,0.04,-0.70,-0.10,0.71
3.772,0.52,-0.05,0.81,0.96
3.782,0.56,-0.60,-0.12,0.83
3.792,0.17,-0.14,-0.19,0.29
3.802,-0.30,0.10,-0.12,0.34
3.812,0.33,-0.34,0.11,0.49
3.822,1.54,1.23,0.98,2.20
3.832,1.08,0.87,-0.74,1.57
3.843,-0.02,0.37,-0.48,0.60
3.853,-0.59,0.68,0.58,1.08
3.863,-1.74,-0.83,-0.49,1.98
3.873,-1.45,0.17,0.01,1.46
3.883,-0.79,-0.44,-0.87,1.26
3.893,0.30,-0.70,-0.19,0.79
3.903,0.91,0.23,0.94,1.33
3.913,0.24,-1.02,-0.17,1.06
3.923,-0.48,-0.07,-0.09,0.49
3.933,0.19,0.42,-0.23,0.52
3.943,0.47,-0.09,0.20,0.52
3.953,1.43,1.21,0.65,1.98
3.963,1.25,0.73,-0.65,1.59
3.974,0.03,0.21,-0.13,0.25
3.984,-1.20,-0.11,0.36,1.26
3.994,-2.10,-0.63,-0.36,2.22
4.004,-1.64,0.18,-0.39,1.69
4.014,-0.06,0.27,-0.57,0.63
4.024,0.35,-0.36,-0.04,0.50
4.034,0.91,0.17,0.55,1.08
4.044,0.51,-0.56,0.02,0.76
4.054,-0.51,-0.69,-0.23,0.88
4.064,-0.35,-0.01,0.27,0.44
4.075,0.95,0.66,0.32,1.20
4.085,1.27,1.10,-0.18,1.69
4.095,0.83,0.88,-0.37,1.27
4.105,0.18,0.55,0.08,0.58
4.115,-1.32,-0.89,0.04,1.59
4.125,-1.69,-0.76,-0.16,1.86
4.135,-1.56,-0.20,-0.18,1.59
4.145,0.09,0.49,-0.47,0.69
4.155,0.61,0.47,0.03,0.77
4.165,0.58,0.09,-0.04,0.59
4.175,0.43,-0.04,0.14,0.46
4.185,-0.28,-0.53,-0.28,0.66
4.196,-0.78,-1.42,0.18,1.63
4.205,0.80,0.29,0.89,1.23
4.215,1.86,1.10,-0.18,2.16
4.226,0.88,1.20,-0.66,1.62
4.236,0.19,0.76,0.00,0.78
4.246,-1.36,-0.20,-0.29,1.41
4.256,-2.10,-0.69,0.18,2.22
4.266,-0.99,-0.34,-0.32,1.10
4.276,-0.81,-0.55,-0.50,1.10
4.286,0.59,0.47,0.41,0.86
4.296,0.95,0.06,-0.24,0.98
4.306,0.15,-0.12,0.06,0.20
4.316,-0.13,-0.53,-0.14,0.56
4.327,-0.38,-0.85,-0.18,0.95
4.337,0.53,0.12,0.96,1.10
4.347,1.21,0.59,0.26,1.37
4.357,0.80,1.09,-1.08,1.73
4.367,0.49,1.26,0.08,1.36
4.377,-0.38,0.47,0.20,0.63
4.387,-2.02,-1.06,-0.20,2.29
4.397,-1.34,-0.34,-0.39,1.44
4.407,-0.33,-0.47,-0.61,0.84
4.417,-0.68,-0.87,0.43,1.18
4.428,0.80,0.03,0.28,0.85
4.437,0.43,0.01,-0.16,0.46
4.448,0.15,0.28,-0.34,0.46
4.458,0.08,-0.47,0.05,0.48
4.468,0.93,0.60,0.87,1.41
4.478,1.59,0.69,-0.04,1.74
4.488,0.06,0.33,-0.91,0.97
4.498,-0.34,0.80,0.67,1.10
4.508,-0.96,-0.02,-0.42,1.05
4.518,-1.72,-0.17,-0.07,1.73
4.528,-1.11,-0.02,-0.62,1.27
4.538,0.00,-0.34,-0.40,0.52
4.548,0.88,0.14,0.56,1.05
4.558,0.24,-1.34,0.09,1.36
4.569,-0.05,0.24,0.16,0.29
4.579,-0.20,0.14,-0.21,0.32
4.589,-0.27,-0.46,-0.55,0.77
4.599,0.97,0.74,1.03,1.60
4.609,1.98,0.86,0.07,2.16
4.619,0.64,0.20,-0.88,1.11
4.629,-0.22,0.54,0.61,0.84
4.639,-1.83,-0.16,-0.06,1.84
4.649,-2.38,-0.01,-0.63,2.46
4.659,-0.69,0.62,-0.56,1.08
4.669,0.18,-0.42,-0.30,0.55
4.680,0.82,-0.20,0.64,1.06
4.690,0.85,-0.49,0.24,1.01
4.700,-0.46,-1.02,-0.34,1.17
4.710,-0.81,-0.66,-0.04,1.04
4.720,0.20,-0.13,-0.11,0.26
4.730,0.88,0.98,0.93,1.62
4.740,1.78,1.42,-0.15,2.28
4.750,0.79,0.86,-1.04,1.57
4.760,0.01,0.74,0.39,0.83
4.770,-1.63,-0.22,0.00,1.64
4.780,-2.77,-0.73,0.14,2.87
4.791,-0.74,-0.18,-1.36,1.56
4.801,0.68,-0.33,0.49,0.90
4.811,1.20,0.34,0.36,1.30
4.820,0.17,-0.86,0.07,0.88
4.831,-0.08,0.05,-0.30,0.31
4.841,-0.77,-0.59,-0.29,1.01
4.851,-0.59,-0.64,-0.08,0.88
4.861,1.19,0.47,0.85,1.53
4.871,2.05,1.14,0.35,2.37
4.881,0.75,1.02,-0.85,1.53
4.891,-0.18,0.65,-0.26,0.72
4.901,-1.67,0.12,0.07,1.68
4.912,-2.41,-0.21,-0.06,2.42
4.922,-1.11,-0.40,-0.69,1.37
4.932,0.50,-0.15,0.36,0.63
4.942,0.82,-0.77,-0.62,1.28
4.952,0.70,-0.16,0.93,1.18
4.962,0.13,-0.40,-0.16,0.45
4.972,-0.67,-0.79,-0.66,1.23
4.982,-0.47,-0.20,0.23,0.56
4.992,0.75,0.30,0.66,1.04
5.002,1.53,1.18,0.03,1.93
5.012,1.20,0.89,-0.85,1.72
5.023,0.19,0.88,0.38,0.98
5.032,-1.92,0.44,0.22,1.99
5.043,-2.06,-0.11,-0.91,2.25
5.053,-1.10,-0.79,-0.92,1.64
5.063,0.04,-0.13,0.90,0.91
5.073,0.60,-1.00,-0.28,1.20
5.083,0.44,-0.75,0.49,1.00
5.093,0.50,0.28,-0.19,0.61
5.103,-0.59,-1.33,-0.68,1.61
5.113,0.45,0.77,0.61,1.08
5.123,1.39,0.89,0.85,1.86
5.133,0.84,0.95,-0.78,1.49
5.143,0.25,1.11,-0.31,1.18
5.154,-0.47,0.56,0.05,0.73
5.164,-1.66,0.03,0.05,1.66
5.174,-1.73,-0.34,-0.34,1.80
5.184,-0.57,-0.53,-0.88,1.18
5.194,0.53,-0.66,0.29,0.90
5.204,0.44,-0.83,0.46,1.04
5.214,-0.10,-0.39,0.21,0.46
5.224,0.24,0.04,-0.31,0.39
5.234,-0.12,0.03,-0.45,0.47
5.244,0.38,0.59,0.59,0.91
5.254,1.70,1.38,0.50,2.24
5.264,0.79,0.62,-0.93,1.36
5.275,0.22,0.36,-0.01,0.43
5.285,-0.38,-0.21,0.48,0.65
5.295,-1.73,-0.79,-0.26,1.92
5.305,-1.94,0.18,-0.01,1.95
5.315,-0.73,-0.32,-1.49,1.69
5.325,0.17,0.08,0.37,0.41
5.335,0.82,0.11,0.62,1.03
5.345,0.61,-0.93,-0.19,1.13
5.355,-0.16,-0.11,0.01,0.19
5.365,0.08,0.03,-0.06,0.10
5.376,0.51,-0.11,0.30,0.60
5.385,1.28,1.26,0.35,1.83
5.396,0.89,0.74,-0.80,1.41
5.406,0.09,0.55,0.02,0.56
5.416,-1.26,-0.61,0.41,1.46
5.426,-2.26,-0.77,-0.52,2.44
5.436,-1.13,0.30,-0.16,1.18
5.446,0.33,0.41,-0.51,0.73
5.456,0.53,-0.06,-0.08,0.54
5.466,0.88,0.15,0.56,1.06
5.476,0.41,-0.04,-0.08,0.42
5.486,-0.91,-1.08,-0.46,1.49
5.496,-0.66,-0.82,0.06,1.06
5.506,1.07,0.36,0.77,1.37
5.516,1.85,1.05,0.30,2.15
5.527,1.10,1.21,-0.80,1.82
5.537,-0.31,0.56,-0.20,0.67
5.547,-1.41,0.29,0.09,1.44
5.557,-1.99,-0.38,-0.15,2.03
5.567,-1.83,-0.74,-0.45,2.03
5.577,0.16,0.16,-0.33,0.40
5.587,0.97,-0.37,0.05,1.04
5.597,0.71,-0.15,0.49,0.87
5.607,0.24,-0.40,-0.14,0.49
5.618,-0.30,-0.35,-0.38,0.60
5.628,-0.52,-0.37,0.05,0.64
5.638,0.15,0.12,0.50,0.53
5.648,1.69,1.08,0.37,2.04
5.658,1.45,0.92,-0.93,1.96
5.668,0.34,0.77,0.34,0.90
5.678,-1.41,-0.44,0.19,1.49
5.688,-2.38,-0.20,-0.55,2.45
5.698,-1.67,-0.23,-0.50,1.76
5.708,-0.07,-0.48,-0.44,0.65
5.718,0.55,-0.17,0.45,0.73
5.728,1.10,-0.07,0.32,1.15
5.738,0.44,-0.02,0.05,0.44
5.749,-0.51,-0.56,-0.57,0.95
5.759,-0.13,-0.05,0.20,0.25
5.769,1.07,0.83,0.79,1.57
5.779,1.11,0.67,-0.51,1.39
5.789,0.48,0.94,-0.18,1.07
5.799,-0.02,0.40,-0.00,0.40
5.809,-1.07,-0.39,-0.14,1.15
5.819,-1.67,-0.23,0.20,1.70
5.829,-1.41,-0.46,-0.85,1.71
5.839,0.06,-0.53,-0.62,0.82
5.849,0.38,-0.10,0.76,0.86
5.859,0.15,-0.43,0.13,0.47
5.870,0.55,0.42,0.13,0.71
5.880,-0.16,-0.09,-0.75,0.77
5.890,0.06,-0.40,0.11,0.42
5.900,1.56,1.07,0.93,2.12
5.910,1.23,0.51,-0.43,1.40
5.920,0.05,0.28,-0.20,0.35
5.930,-0.45,0.29,0.19,0.57
5.940,-1.53,-0.57,-0.60,1.74
5.950,-1.66,0.26,0.57,1.78
5.960,-1.28,-0.27,-1.27,1.82
5.971,0.34,-0.20,-0.10,0.41
5.981,0.98,0.57,0.67,1.32
5.991,0.58,-0.78,-0.16,0.98
6.001,-0.24,0.00,0.34,0.41
6.011,-0.15,-0.18,-0.58,0.62
6.021,-0.08,-0.42,-0.12,0.44
6.031,1.08,0.74,1.05,1.68
6.041,1.42,0.37,-0.57,1.57
6.051,0.47,0.77,-0.23,0.93
6.061,-0.71,0.19,0.25,0.78
6.071,-1.81,-0.70,-0.57,2.02
6.081,-1.58,0.55,0.30,1.70
6.091,-0.36,0.25,-0.95,1.05
6.101,0.24,-0.14,-0.09,0.29
6.112,0.83,0.38,0.55,1.07
6.122,0.59,-0.66,-0.15,0.90
6.132,-0.43,-0.53,0.19,0.70
6.142,0.53,0.23,0.60,0.83
6.152,2.18,1.85,0.17,2.87
6.162,1.93,2.31,-0.03,3.01
6.172,1.12,1.30,-0.23,1.73
6.182,-0.18,0.13,-0.49,0.54
6.192,-1.00,-0.41,0.16,1.09
6.202,-1.27,-1.25,0.18,1.79
6.213,-1.73,-0.97,0.06,1.99
6.223,-1.19,0.18,-0.26,1.23
6.233,-0.18,-0.43,-1.57,1.63
6.243,-0.12,0.17,0.34,0.40
6.253,0.97,0.21,1.11,1.49
6.263,0.83,-0.44,-0.30,0.98
6.273,0.06,0.34,-0.22,0.41
6.283,-0.27,-0.23,-0.23,0.42
6.293,-0.67,-0.48,-0.47,0.95
6.303,-0.28,-0.21,0.47,0.58
6.313,0.05,-0.47,-0.01,0.47
6.323,-0.09,-0.99,-0.37,1.06
6.333,0.02,-0.17,-0.16,0.23
6.344,-0.82,-0.18,0.11,0.85
6.354,-1.88,0.47,-0.23,1.96
6.364,-1.21,0.68,-0.87,1.64
6.374,-0.40,0.02,-0.50,0.64
6.384,0.41,-0.30,0.41,0.65
6.394,0.94,-1.00,0.24,1.39
6.404,0.13,-0.88,0.17,0.91
6.414,-0.12,-0.86,-0.45,0.98
6.424,-1.27,-1.34,-0.51,1.92
6.434,-1.44,-0.05,0.19,1.46
6.445,-1.49,-0.20,-0.35,1.55
6.455,-1.30,0.40,-0.58,1.48
6.465,-1.99,1.52,-0.08,2.51
6.475,-0.76,3.07,-0.15,3.16
6.485,1.44,3.29,1.18,3.78
6.495,3.32,2.99,-1.02,4.58
6.505,1.60,-0.49,-2.37,2.90
6.515,2.08,-0.77,3.16,3.86
6.525,-0.08,-0.83,1.27,1.52
6.535,-2.14,-2.27,-0.09,3.12
6.545,-0.45,-0.36,-1.59,1.69
6.555,0.62,0.69,-0.47,1.04
6.565,0.68,-0.51,-0.18,0.87
6.576,1.07,0.24,0.80,1.36
6.586,1.12,0.72,1.56,2.05
6.596,-0.20,0.49,-1.22,1.33
6.606,-0.80,-0.23,-1.19,1.45
6.616,-0.92,-1.24,-0.06,1.54
6.626,-0.15,-1.00,0.56,1.15
6.636,0.52,-0.68,0.72,1.12
6.646,0.18,-0.70,-0.14,0.73
6.656,0.17,-0.32,-0.77,0.85
6.666,0.29,-0.22,-0.21,0.42
6.676,0.23,-0.01,0.58,0.63
6.686,1.14,0.76,0.62,1.50
6.697,1.44,0.72,0.35,1.65
6.707,0.73,0.49,-1.53,1.76
6.717,-0.18,-0.46,0.14,0.52
6.727,-0.59,-0.65,0.59,1.06
6.737,-0.66,-1.28,0.20,1.46
6.747,0.26,-1.08,0.04,1.11
6.757,0.86,-0.28,-0.56,1.06
6.767,0.99,-0.30,-0.16,1.05
6.777,0.55,-0.83,0.28,1.03
6.787,-0.76,-1.08,0.20,1.34
6.798,-4.97,3.29,1.51,6.15
6.807,-2.03,1.47,-3.61,4.40
6.817,1.74,2.29,-0.20,2.89
6.828,1.56,2.88,0.68,3.34
6.838,1.71,-0.24,-0.02,1.73
6.848,0.58,-0.20,1.30,1.44
6.858,-2.54,0.83,1.62,3.12
6.868,-1.83,-1.83,-3.94,4.72
6.878,-0.13,-0.80,-0.33,0.88
6.888,-0.61,-0.49,1.08,1.34
6.898,-0.03,-1.30,-0.09,1.30
6.908,0.49,0.51,1.19,1.38
6.918,0.26,-0.73,-0.74,1.07
6.929,-0.05,0.05,-1.44,1.44
6.939,0.30,-0.20,1.05,1.11
6.949,1.53,0.74,0.34,1.74
6.959,1.31,0.91,0.78,1.77
6.969,0.54,1.01,-1.64,2.00
6.979,-1.33,-0.50,0.71,1.58
6.989,-2.30,1.15,-0.76,2.68
6.999,-2.02,-1.35,-0.26,2.45
7.009,0.11,0.66,0.20,0.70
7.019,0.15,-1.29,-0.18,1.31
7.029,1.17,0.48,-0.04,1.26
7.039,0.30,-0.27,0.58,0.70
7.049,0.17,-0.67,-1.07,1.27
7.060,-0.32,-0.68,0.53,0.93
7.070,0.27,-0.59,0.73,0.98
7.080,1.25,1.21,0.04,1.74
7.090,0.44,0.55,-0.67,0.98
7.100,0.79,1.32,-0.47,1.61
7.110,-0.77,0.75,0.45,1.17
7.120,-2.25,0.35,0.22,2.28
7.130,-1.40,-0.21,-1.36,1.96
7.140,-0.23,-1.18,-0.16,1.22
7.150,-0.17,-0.51,0.52,0.75
7.161,0.59,-0.07,0.56,0.82
7.171,0.40,-0.03,-0.38,0.55
7.181,0.34,-0.32,-0.31,0.56
7.191,0.37,0.06,-0.41,0.55
7.201,0.80,-0.36,1.25,1.52
7.211,1.33,1.19,0.18,1.79
7.221,0.63,-0.49,0.15,0.81
7.231,-1.27,-1.50,3.08,3.65
7.241,-1.95,0.91,-1.00,2.37
7.251,-1.25,0.90,0.44,1.60
7.261,-0.34,0.47,-2.89,2.95
7.271,-0.29,-0.22,-2.15,2.18
7.281,-0.14,-1.19,1.76,2.13
7.292,-0.23,0.53,2.70,2.76
7.302,0.25,-0.60,-0.67,0.94
7.312,0.65,1.33,-0.83,1.70
7.322,0.93,0.45,-0.82,1.32
7.332,0.58,0.26,-0.71,0.95
7.342,-0.39,-0.42,0.34,0.67
7.352,-0.00,-0.15,0.85,0.87
7.362,-0.25,-0.12,-0.29,0.40
7.372,-1.95,0.50,-1.93,2.79
7.382,-0.31,0.77,-1.54,1.75
7.392,1.45,0.60,-1.04,1.88
7.403,0.71,-1.01,3.61,3.81
7.413,-0.00,0.10,-1.35,1.36
7.423,-0.46,-0.44,-0.85,1.06
7.433,-0.01,2.46,-2.73,3.67
7.443,0.58,4.11,-2.94,5.09
7.453,1.78,4.35,2.04,5.12
7.463,0.56,3.42,-0.52,3.51
7.473,0.57,4.19,-3.07,5.22
7.483,0.12,-2.13,0.41,2.18
7.493,-2.91,-8.55,9.52,13.12
7.503,-0.33,0.84,-8.09,8.14
7.513,0.09,-1.70,5.20,5.47
7.523,-1.73,-3.73,5.46,6.84
7.533,0.25,-0.28,-3.49,3.51
7.544,-0.06,-0.49,-3.49,3.52
7.554,-0.28,-0.90,-2.04,2.25
7.564,0.03,-1.27,1.17,1.73
7.574,0.25,-1.20,2.66,2.93
7.584,0.72,-0.52,1.09,1.40
7.594,1.80,0.65,-0.25,1.93
7.604,2.20,1.57,-1.69,3.19
7.614,-0.30,0.49,-1.73,1.82
7.624,-0.65,0.69,1.16,1.50
7.634,-1.66,-0.02,1.31,2.11
7.645,-2.40,0.10,-0.61,2.48
7.655,-1.02,-1.17,-1.30,2.02
7.665,1.11,0.81,-0.65,1.52
7.675,0.60,-0.05,-0.61,0.86
7.685,0.48,-1.80,2.27,2.93
7.695,0.85,1.43,-0.49,1.73
7.705,-0.85,-1.69,0.59,1.98
7.715,0.12,0.14,-1.26,1.27
7.725,0.83,0.95,1.02,1.62
7.735,0.98,0.44,-0.95,1.44
7.745,0.93,0.99,0.23,1.37
7.756,-0.40,0.33,0.90,1.03
7.766,-1.54,0.04,-1.02,1.85
7.776,-2.07,-0.09,-0.30,2.10
7.786,-0.89,-0.40,-0.98,1.38
7.796,-0.34,-0.73,0.46,0.93
7.806,1.14,-0.02,0.66,1.32
7.816,1.30,-0.62,0.08,1.44
7.826,-0.09,-0.22,-0.65,0.69
7.836,-0.42,0.12,0.38,0.59
7.846,0.54,0.36,-0.04,0.65
7.856,0.81,1.01,0.54,1.40
7.866,0.96,0.83,-0.72,1.46
7.877,0.60,0.48,-0.08,0.77
7.887,-0.78,0.14,0.43,0.90
7.897,-2.17,-0.55,-0.25,2.25
7.907,-1.72,-0.17,-0.87,1.93
7.917,-0.38,-0.41,-0.38,0.67
7.927,0.24,-0.59,0.12,0.65
7.937,0.94,0.02,0.90,1.30
7.947,0.92,0.44,-0.13,1.02
7.957,-0.24,0.13,-0.65,0.70
7.967,-0.73,-0.67,-0.27,1.03
7.977,0.68,0.26,0.69,1.00
7.987,1.38,0.63,0.44,1.58
7.998,0.75,0.22,-0.62,1.00
8.008,0.39,0.63,0.20,0.77
8.018,-1.04,-0.09,-0.49,1.15
8.028,-1.90,-0.01,0.16,1.91
8.038,-1.56,0.16,-0.55,1.66
8.048,-0.37,-0.43,-0.56,0.79
8.058,0.84,0.43,0.25,0.98
8.068,0.68,-0.77,0.22,1.05
8.078,0.18,-0.43,0.01,0.47
8.088,-0.28,-0.26,0.12,0.40
8.098,-0.03,-0.37,-0.64,0.74
8.109,0.74,0.64,1.21,1.56
8.119,1.41,0.78,-0.32,1.65
8.129,0.82,1.00,-0.73,1.49
8.139,0.07,0.60,0.37,0.71
8.149,-1.83,-0.59,-0.14,1.93
8.159,-2.38,-0.66,-0.41,2.50
8.169,-0.81,0.33,-0.17,0.89
8.179,0.14,-0.29,-0.48,0.57
8.189,0.76,-0.15,0.24,0.81
8.199,0.78,-0.05,0.26,0.83
8.209,-0.00,-0.18,0.03,0.19
8.219,-0.92,-0.45,-0.41,1.10
8.230,-0.35,-0.45,0.02,0.57
8.240,1.60,0.86,0.77,1.97
8.250,1.77,1.01,-0.23,2.06
8.260,0.74,0.43,-0.30,0.91
8.270,-0.08,0.59,-0.14,0.61
8.280,-1.92,-0.69,0.02,2.04
8.290,-2.35,-0.46,-0.07,2.40
8.300,-1.17,-0.35,-0.83,1.48
8.310,0.33,0.14,-0.12,0.38
8.320,0.55,0.20,0.43,0.72
8.330,1.13,-0.05,-0.21,1.15
8.340,0.26,0.13,0.24,0.38
8.351,-0.51,-0.57,-0.42,0.87
8.361,-0.25,-0.68,0.18,0.74
8.371,0.75,0.89,1.00,1.54
8.381,1.52,1.03,-0.85,2.02
8.391,0.79,0.80,-0.39,1.19
8.401,-0.18,0.40,0.39,0.59
8.411,-1.51,-0.88,-0.35,1.78
8.421,-1.60,-0.19,0.24,1.63
8.431,-1.35,-0.56,-0.91,1.72
8.441,-0.48,-0.43,-0.33,0.73
8.451,0.77,1.26,0.88,1.72
8.461,0.91,-0.56,-0.68,1.27
8.472,0.37,0.09,0.06,0.39
8.482,-0.08,-0.32,0.19,0.38
8.492,0.29,-0.74,0.07,0.80
8.502,0.75,0.61,0.67,1.17
8.512,0.88,0.71,-0.36,1.18
8.522,0.39,1.05,-0.73,1.34
8.532,-0.32,0.49,0.35,0.68
8.542,-1.27,-0.73,-0.26,1.49
8.552,-1.67,-0.64,0.03,1.79
8.562,-0.72,0.11,-0.60,0.95
8.572,-0.29,-0.64,-0.31,0.77
8.583,0.09,-0.16,0.47,0.50
8.593,0.88,0.63,0.15,1.10
8.603,0.49,-0.00,-0.45,0.67
8.613,-0.21,-0.16,-0.07,0.27
8.623,0.29,-0.18,0.32,0.46
8.633,1.21,0.32,0.53,1.36
8.643,0.80,0.55,-0.59,1.14
8.653,0.21,0.35,-0.01,0.41
8.663,-0.38,0.38,0.18,0.56
8.673,-1.36,-0.10,-0.29,1.40
8.683,-1.83,0.24,-0.30,1.87
8.693,-0.54,0.22,-0.84,1.02
8.703,0.14,-0.18,0.17,0.29
8.714,0.58,-0.41,0.33,0.78
8.724,0.64,-0.48,0.21,0.83
8.734,-0.01,-0.27,-0.31,0.41
8.744,-0.35,-0.42,-0.31,0.63
8.754,-0.12,-0.18,0.34,0.40
8.764,0.96,0.57,0.56,1.25
8.774,1.52,1.10,-0.37,1.91
8.784,0.67,0.63,-0.49,1.04
8.794,-0.71,0.38,0.38,0.89
8.804,-2.29,-0.39,-0.20,2.34
8.814,-1.84,0.24,-0.64,1.96
8.825,-0.34,0.01,-0.23,0.41
8.835,0.46,-0.46,-0.09,0.65
8.845,1.22,-0.12,0.33,1.28
8.855,0.63,-0.32,0.25,0.75
8.865,-0.85,-0.70,-0.36,1.16
8.875,-1.11,-0.88,-0.33,1.45
8.885,0.37,0.12,0.15,0.42
8.895,1.58,1.10,0.81,2.09
8.905,1.84,1.00,-0.14,2.10
8.915,0.79,0.71,-0.94,1.42
8.925,-0.41,0.34,0.27,0.60
8.935,-2.74,-0.31,0.22,2.76
8.945,-2.43,-0.41,-0.59,2.53
8.956,-0.50,-0.60,-0.85,1.15
8.966,0.59,0.33,0.61,0.91
8.976,1.49,-0.33,-0.06,1.53
8.986,0.83,-0.27,0.31,0.93
8.996,-0.24,-0.16,-0.26,0.39
9.006,-1.30,-1.39,-0.62,2.00
9.016,-0.62,0.20,0.56,0.86
9.026,1.23,0.46,0.80,1.54
9.036,2.22,1.47,-0.55,2.72
9.046,0.92,0.77,-0.66,1.37
9.057,-0.19,0.26,0.11,0.34
9.067,-1.96,0.63,0.38,2.09
9.077,-2.85,-0.56,-0.59,2.96
9.087,-0.76,-0.95,-1.06,1.61
9.097,0.37,0.31,0.38,0.61
9.107,1.27,-0.67,0.25,1.46
9.117,0.66,-0.51,0.41,0.93
9.127,0.34,0.08,-0.06,0.36
9.137,-0.27,-0.88,-0.87,1.26
9.147,-0.52,0.12,0.60,0.80
9.157,0.93,1.02,0.82,1.61
9.167,1.16,0.46,-1.25,1.77
9.177,0.80,1.28,0.21,1.52
9.188,-0.66,0.72,0.29,1.02
9.198,-2.32,-0.17,-0.34,2.36
9.208,-1.44,0.40,-0.97,1.78
9.218,-0.74,-1.13,-0.26,1.37
9.228,0.44,-0.46,0.51,0.82
9.238,0.84,-0.71,0.33,1.15
9.248,0.45,-0.25,-0.03,0.52
9.258,0.06,-0.14,-0.39,0.42
9.268,-0.26,-0.55,-0.41,0.74
9.278,0.51,0.63,1.05,1.33
9.288,1.35,1.04,0.08,1.71
9.298,0.44,0.49,-0.91,1.12
9.309,0.45,1.09,-0.01,1.18
9.319,-0.58,0.27,0.25,0.69
9.329,-2.45,-0.34,-0.17,2.48
9.339,-1.50,-0.03,-0.85,1.72
9.349,0.15,-0.20,-0.38,0.46
9.359,0.42,-0.49,0.46,0.79
9.369,0.86,-0.60,0.35,1.10
9.379,0.45,0.01,-0.05,0.45
9.389,-0.06,0.18,-0.47,0.51
9.399,-0.37,-0.54,-0.19,0.68
9.409,0.11,0.13,0.43,0.46
9.419,1.28,0.99,0.63,1.73
9.429,1.08,0.85,-0.78,1.58
9.440,-0.12,0.12,-0.26,0.31
9.450,-0.74,-0.68,0.07,1.01
9.460,-1.34,-0.19,0.12,1.35
9.470,-1.67,0.59,0.45,1.83
9.480,-0.29,0.16,-2.15,2.18
9.490,-0.09,-0.97,0.56,1.13
9.500,0.82,1.06,0.08,1.34
9.510,0.59,-1.00,0.75,1.38
9.520,-0.41,-0.58,-0.43,0.83
9.530,-0.18,-0.64,-0.28,0.72
9.541,0.92,0.17,0.47,1.04
9.551,1.55,1.02,0.41,1.90
9.561,0.90,0.74,-0.71,1.37
9.571,0.18,0.88,0.29,0.94
9.581,-1.51,-0.20,-0.31,1.55
9.591,-2.79,-0.80,-0.38,2.93
9.601,-1.07,0.26,-0.53,1.23
9.611,0.14,-0.13,0.07,0.20
9.621,0.93,0.08,0.16,0.94
9.631,1.06,-0.41,-0.01,1.14
9.642,0.40,-0.22,0.14,0.47
9.651,-0.79,-0.64,-0.40,1.09
9.662,-0.91,-0.60,0.14,1.10
9.672,1.20,0.96,0.90,1.78
9.682,1.67,0.85,-0.78,2.03
9.692,1.08,0.85,-0.46,1.45
9.702,-0.00,0.48,0.49,0.68
9.712,-1.31,0.17,0.23,1.34
9.722,-2.58,-0.16,-0.50,2.64
9.732,-1.97,-0.97,-1.41,2.61
9.742,0.51,0.32,0.25,0.65
9.752,0.94,-0.63,0.54,1.25
9.763,0.90,-0.64,0.31,1.15
9.773,0.58,0.26,0.22,0.68
9.783,-0.13,-0.43,-0.93,1.03
9.793,-0.36,0.30,0.30,0.55
9.803,0.86,0.88,0.83,1.49
9.813,1.22,0.77,-0.85,1.67
9.823,0.46,0.95,0.19,1.08
9.833,-0.36,-0.03,-0.17,0.40
9.843,-1.65,-0.31,-0.04,1.68
9.853,-2.09,0.02,-0.23,2.11
9.863,-0.97,-1.02,-1.01,1.73
9.873,0.33,0.14,0.48,0.59
9.883,0.86,-0.18,0.27,0.92
9.893,1.22,-0.13,-0.01,1.23
9.904,-0.08,0.28,0.09,0.31
9.914,-0.58,-0.56,-0.66,1.04
9.924,0.06,0.24,0.48,0.54
9.934,1.04,0.70,0.66,1.41
9.944,0.90,0.20,-1.03,1.39
9.954,1.05,0.89,0.45,1.45
9.964,-0.27,0.21,0.01,0.35
9.974,-1.82,-0.66,-0.27,1.96
9.984,-2.08,0.20,-0.21,2.10
9.994,-0.78,-0.06,-1.14,1.39
10.004,0.19,-0.42,0.49,0.67
10.015,0.70,0.03,0.39,0.81
10.025,0.77,-0.51,-0.07,0.93
10.035,0.25,0.10,-0.19,0.33
10.045,-0.51,-0.41,-0.27,0.71
10.055,-0.07,-0.37,0.08,0.39
10.065,1.36,1.02,1.02,1.98
10.075,1.10,0.62,-0.79,1.49
10.085,0.16,0.50,-0.24,0.58
10.095,-0.39,0.44,0.15,0.60
10.105,-1.85,-0.68,-0.29,2.00
10.115,-1.67,0.42,0.04,1.72
10.125,-0.76,-0.77,-0.98,1.46
10.136,0.34,-0.31,0.02,0.46
10.146,0.77,0.14,0.61,0.99
10.156,0.43,-0.74,-0.11,0.86
10.166,-0.43,-0.02,0.05,0.43
10.176,-0.21,-0.25,-0.39,0.51
10.186,0.95,0.32,0.12,1.01
10.196,1.48,0.52,1.19,1.97
10.206,1.21,0.96,-1.30,2.02
10.216,-0.33,-0.05,0.12,0.36
10.226,-1.12,0.46,0.03,1.21
10.236,-2.20,-0.74,-0.07,2.32
10.246,-1.53,0.08,-0.48,1.61
10.257,0.02,0.16,-0.66,0.68
10.267,0.66,-0.37,0.04,0.76
10.277,0.91,0.06,0.68,1.14
10.287,0.31,-0.44,0.03,0.54
10.297,-0.72,-0.55,-0.60,1.08
10.307,-0.42,0.10,0.23,0.49
10.317,1.12,0.65,0.55,1.40
10.327,1.55,1.04,-0.29,1.89
10.337,0.88,0.56,-0.37,1.11
10.347,0.14,0.32,0.06,0.35
10.357,-1.04,-0.36,0.16,1.11
10.368,-2.37,-1.33,-0.25,2.73
10.378,-1.77,0.09,0.01,1.77
10.388,0.38,1.07,-0.91,1.46
10.398,0.06,-1.03,-0.17,1.04
10.408,0.99,1.24,0.07,1.59
10.418,0.71,-0.66,0.78,1.24
10.428,-0.03,-0.15,-0.61,0.63
10.438,-0.43,-0.61,0.50,0.90
10.448,0.58,-0.15,0.37,0.70
10.458,1.46,1.59,-0.62,2.24
10.468,0.53,0.53,0.04,0.76
10.478,0.09,0.56,-0.23,0.61
10.489,-1.45,-0.64,0.26,1.61
10.499,-1.72,-0.42,-0.32,1.79
10.509,-1.03,-0.14,-0.64,1.22
10.519,-0.70,-0.48,-0.24,0.89
10.529,0.61,0.60,0.56,1.02
10.539,1.01,-0.04,0.04,1.02
10.549,0.59,0.99,-0.61,1.30
10.559,-0.36,-1.58,-0.05,1.62
10.569,-0.27,-0.20,-0.14,0.36
10.579,0.89,0.13,1.48,1.73
10.589,1.13,0.39,-0.40,1.26
10.599,0.76,1.51,-0.62,1.80
10.610,0.35,0.61,-0.22,0.74
10.620,-1.27,-0.33,-0.36,1.36
10.630,-1.91,-0.85,0.66,2.19
10.640,-1.01,-0.01,-0.44,1.10
10.650,-0.53,-0.54,-0.74,1.06
10.660,0.16,-0.12,0.34,0.39
10.670,1.13,0.33,-0.01,1.18
10.680,0.36,0.08,0.09,0.38
10.690,-0.01,-0.04,-0.13,0.14
10.700,-0.43,-0.77,-0.15,0.90
10.710,0.68,0.29,0.58,0.94
10.721,1.48,0.31,0.02,1.52
10.731,0.22,0.41,-0.43,0.64
10.741,-0.09,0.55,0.26,0.61
10.751,-0.88,0.37,-0.48,1.06
10.761,-2.16,-0.14,0.09,2.17
10.771,-0.85,0.05,-0.98,1.30
10.781,-0.05,-0.21,-0.06,0.23
10.791,0.58,-0.08,0.58,0.82
10.801,0.63,-0.64,-0.10,0.91
10.811,-0.08,-0.35,0.09,0.37
10.821,-0.12,0.01,-0.39,0.41
10.831,0.04,-0.05,-0.09,0.11
10.842,0.43,0.06,0.95,1.04
10.852,1.88,0.86,-0.38,2.10
10.862,0.85,0.45,-0.36,1.03
10.872,-0.45,0.58,0.25,0.78
10.882,-1.90,-0.67,-0.19,2.03
10.892,-2.14,0.25,-0.39,2.19
10.902,-0.72,0.82,-0.44,1.18
10.912,0.44,-0.67,-0.51,0.95
10.922,0.85,0.23,0.56,1.04
10.932,0.98,-0.43,0.42,1.15
10.943,-0.39,-0.81,-0.49,1.02
10.953,-1.26,-0.75,-0.01,1.47
10.963,0.10,-0.49,-0.08,0.50
10.973,1.26,1.31,0.68,1.94
10.983,1.72,1.08,0.22,2.04
10.993,0.91,0.58,-1.31,1.70
11.003,0.26,0.59,0.48,0.81
11.013,-1.88,-0.32,0.42,1.95
11.023,-3.07,-0.87,-0.70,3.26
11.033,-0.78,0.19,-0.55,0.97
11.043,0.28,0.43,-0.23,0.56
11.053,0.88,-0.65,0.24,1.12
11.063,1.38,-0.02,0.52,1.47
11.074,-0.04,-0.59,-0.30,0.66
11.084,-0.92,-0.96,-0.36,1.38
11.094,-0.56,-0.27,0.24,0.66
11.104,0.83,0.29,0.58,1.06
11.114,1.99,1.72,-0.00,2.62
11.124,0.76,0.77,-0.87,1.39
11.134,-0.11,0.43,-0.12,0.46
11.144,-1.32,0.80,0.75,1.71
11.154,-2.96,-0.67,-0.75,3.13
11.164,-0.78,-0.90,-0.92,1.51
11.174,0.18,0.01,0.31,0.36
11.184,0.85,-0.48,0.03,0.97
11.195,1.07,-0.39,0.82,1.41
11.205,0.15,-0.03,-0.52,0.54
11.215,-0.56,-0.66,-0.61,1.06
11.225,-0.12,0.04,0.33,0.35
11.235,0.66,0.42,0.90,1.19
11.245,1.35,0.75,-0.63,1.67
11.255,1.48,1.12,-0.26,1.88
11.265,-0.34,0.76,0.38,0.91
11.275,-2.42,0.02,-0.30,2.44
11.285,-2.01,0.15,-0.96,2.23
11.296,-0.86,-0.75,-0.44,1.22
11.306,0.21,-0.36,0.69,0.81
11.316,0.96,-0.91,-0.07,1.33
11.326,1.06,0.35,0.63,1.28
11.336,0.35,0.30,-0.55,0.71
11.346,-0.93,-1.13,-0.96,1.74
11.356,-0.19,0.27,0.84,0.90
11.366,1.23,0.26,0.86,1.52
11.376,1.00,0.89,-0.54,1.44
11.386,0.59,0.70,-0.37,0.99
11.396,-0.13,0.54,-0.39,0.68
11.406,-2.12,0.27,0.58,2.22
11.416,-1.96,-0.37,-0.74,2.12
11.426,-0.72,-0.46,-0.56,1.02
11.437,0.51,-0.09,0.07,0.53
11.447,0.80,-0.95,0.23,1.26
11.457,0.33,-0.18,0.46,0.60
11.467,0.16,-0.06,-0.46,0.49
11.477,-0.02,-0.16,-0.18,0.24
11.487,-0.35,-0.04,0.20,0.41
11.497,1.25,0.76,0.55,1.56
11.507,1.27,0.90,-0.46,1.62
11.517,0.38,0.35,-0.27,0.59
11.527,-0.45,-0.24,0.26,0.57
11.537,-1.39,-0.56,-0.14,1.50
11.548,-1.91,0.55,0.12,1.99
11.558,-0.70,-0.07,-1.49,1.64
11.568,-0.08,-0.41,0.14,0.44
11.578,0.61,0.40,0.60,0.95
11.588,0.82,-0.56,0.01,0.99
11.598,-0.13,-0.29,-0.07,0.32
11.608,-0.06,-0.22,-0.18,0.30
11.618,0.45,-0.24,0.26,0.58
11.628,1.33,1.10,0.48,1.79
11.638,0.89,0.50,-0.88,1.35
11.648,0.48,0.50,0.18,0.72
11.658,-0.61,0.21,0.24,0.69
11.669,-2.82,-1.07,-0.32,3.03
11.678,-1.53,0.52,-0.59,1.72
11.689,-0.18,0.01,-0.53,0.56
11.699,0.50,-0.32,0.02,0.59
11.709,1.12,0.10,0.74,1.35
11.719,0.76,-0.58,-0.23,0.98
11.729,-0.30,-0.43,-0.14,0.54
11.739,-0.84,-0.50,-0.05,0.98
11.749,0.76,0.39,0.60,1.05
11.759,1.59,1.45,-0.06,2.15
11.769,0.69,0.33,-0.77,1.08
11.779,0.36,0.79,0.17,0.89
11.790,-1.19,0.15,0.50,1.31
11.800,-2.59,-0.50,-0.62,2.71
11.810,-1.68,-0.36,-1.01,2.00
11.820,0.24,0.17,-0.02,0.29
11.830,0.83,-0.33,0.42,0.99
11.840,1.08,-0.25,0.43,1.19
11.850,0.42,-0.08,-0.07,0.43
11.860,-0.22,-0.27,-0.66,0.75
11.870,-0.48,-0.30,0.19,0.60
11.880,0.45,0.40,0.85,1.04
11.891,1.42,0.75,-0.37,1.65
11.900,1.40,1.29,-0.35,1.94
11.910,-0.14,0.34,0.10,0.38
11.921,-1.55,-0.77,-0.28,1.75
11.931,-2.09,0.32,0.02,2.11
11.941,-1.55,-0.56,-0.87,1.87
11.951,-0.22,-0.27,0.09,0.36
11.961,1.17,0.43,0.13,1.25
11.971,1.28,-0.60,0.01,1.42
11.981,0.70,0.64,0.48,1.06
11.991,-0.93,-1.27,-0.61,1.69
12.001,-0.91,0.03,-0.18,0.93
12.011,0.63,0.47,0.91,1.20
12.021,1.27,0.26,-0.39,1.35
12.032,1.11,0.98,-0.28,1.51
12.042,0.57,0.40,0.25,0.73
12.052,-1.21,0.04,-0.10,1.21
12.062,-2.50,-0.42,-0.13,2.53
12.072,-1.54,-0.14,-1.20,1.95
12.082,-0.05,-0.46,0.01,0.46
12.092,0.53,-0.08,0.50,0.73
12.102,0.81,-0.56,0.13,0.99
12.112,0.64,0.13,0.10,0.66
12.122,-0.11,0.03,-0.59,0.60
12.132,-0.32,-0.64,-0.08,0.72
12.143,0.75,0.64,1.01,1.41
12.153,1.17,0.53,-0.33,1.32
12.163,0.75,0.56,-0.47,1.04
12.173,0.11,0.57,0.33,0.67
12.183,-1.50,-0.54,-0.40,1.64
12.193,-2.03,0.30,0.17,2.06
12.203,-1.54,-0.42,-1.10,1.94
12.213,0.11,-0.56,-0.27,0.64
12.223,1.00,0.49,0.81,1.38
12.233,0.79,-0.92,-0.19,1.23
12.243,0.12,0.19,0.33,0.40
12.254,-0.17,0.18,-0.40,0.47
12.263,-0.08,-0.28,-0.33,0.44
12.274,1.25,1.03,1.00,1.90
12.284,1.12,0.20,-0.57,1.27
12.294,0.81,0.57,-0.26,1.02
12.304,-0.33,-0.01,0.53,0.63
12.314,-2.56,-1.10,-0.59,2.84
12.324,-1.97,0.86,0.11,2.16
12.334,-0.62,-0.12,-1.30,1.45
12.344,0.19,-0.18,0.13,0.29
12.354,1.32,0.53,0.73,1.60
12.364,0.96,-0.90,-0.23,1.34
12.375,-0.32,-0.00,0.17,0.36
12.385,-0.67,-0.68,-0.29,0.99
12.395,0.35,0.22,0.18,0.45
12.405,1.20,1.13,0.50,1.72
12.415,1.20,0.39,-0.85,1.52
12.425,0.45,0.86,0.29,1.01
12.435,-0.75,-0.08,0.07,0.76
12.445,-2.11,-1.23,-0.53,2.49
12.455,-1.98,0.20,-0.02,1.99
12.465,-0.41,-0.02,-0.58,0.71
12.475,0.59,0.25,-0.07,0.65
12.485,0.92,0.41,0.43,1.10
12.496,0.85,-0.30,-0.20,0.93
12.506,-0.26,-0.10,-0.24,0.37
12.516,-0.74,-1.22,0.04,1.42
12.526,0.29,-0.14,0.65,0.72
12.536,1.60,1.48,0.32,2.20
12.546,1.43,1.05,-0.78,1.94
12.556,0.36,0.80,-0.23,0.91
12.566,-1.18,-0.37,0.01,1.24
12.576,-1.84,-0.81,-0.10,2.01
12.586,-1.68,-0.40,0.01,1.72
12.597,-0.67,-0.19,-0.55,0.89
12.607,0.33,0.43,-0.06,0.55
12.616,1.24,0.48,-0.06,1.33
12.627,0.80,-0.01,0.28,0.85
12.637,-0.40,-0.64,-0.24,0.80
12.647,-0.70,-0.84,-0.04,1.10
12.657,0.41,-0.45,0.28,0.67
12.667,0.80,0.18,0.73,1.10
12.677,1.06,1.26,-0.55,1.74
12.687,0.47,1.11,-0.69,1.39
12.697,-0.35,0.57,0.19,0.69
12.707,-1.83,-0.80,-0.01,2.00
12.717,-1.44,-0.50,-0.36,1.56
12.727,-0.41,-0.41,-0.15,0.60
12.738,-0.22,-0.44,0.26,0.56
12.748,0.19,0.04,-0.56,0.59
