time,ax,ay,az,atotal
0.000,0.24,0.13,2.80,2.81
0.010,-0.75,-0.24,0.72,1.07
0.020,-2.27,0.22,-0.61,2.36
0.030,-1.89,-0.24,-3.69,4.15
0.040,-0.19,-0.58,-0.53,0.81
0.050,0.67,0.20,1.96,2.08
0.061,0.78,-1.38,0.96,1.85
0.071,0.40,0.01,0.49,0.63
0.081,-0.12,0.37,-1.31,1.37
0.091,0.04,0.12,-1.03,1.03
0.101,1.20,1.21,1.41,2.21
0.111,1.15,0.48,-0.24,1.27
0.121,0.69,0.48,0.32,0.90
0.131,-0.30,0.34,-0.04,0.46
0.141,-2.56,-1.24,-0.96,3.00
0.151,-1.80,0.50,0.19,1.88
0.161,-0.70,-0.07,-0.85,1.10
0.171,-0.06,-0.49,0.19,0.53
0.182,1.14,0.60,0.49,1.38
0.192,0.99,-0.78,-0.35,1.31
0.202,0.08,0.09,0.12,0.17
0.212,-0.63,-0.44,0.09,0.77
0.222,0.29,0.38,0.25,0.54
0.232,1.13,1.27,0.21,1.71
0.242,0.88,0.46,-0.94,1.37
0.252,0.53,0.72,0.25,0.93
0.262,-0.72,-0.36,0.33,0.87
0.272,-1.84,-0.86,-0.44,2.08
0.282,-2.19,-0.15,-0.21,2.20
0.293,-0.52,0.01,-0.82,0.97
0.302,0.46,0.15,0.40,0.62
0.313,1.10,0.55,0.25,1.26
0.323,0.79,-0.15,-0.34,0.87
0.333,-0.10,-0.12,-0.17,0.24
0.343,-0.72,-0.42,0.04,0.83
0.353,-0.01,-0.69,0.62,0.92
0.363,1.83,1.48,0.29,2.37
0.373,1.22,0.90,-0.72,1.68
0.383,0.30,0.50,-0.27,0.65
0.393,-0.90,-0.06,0.14,0.92
0.403,-2.17,-0.91,-0.21,2.37
0.413,-1.54,0.13,-0.03,1.55
0.423,-0.71,-0.08,-0.61,0.93
0.434,0.23,0.26,-0.16,0.38
0.444,1.40,0.40,0.20,1.47
0.454,0.95,-0.09,0.30,1.00
0.464,-0.62,-0.75,-0.35,1.03
0.474,-0.77,-0.80,-0.08,1.11
0.484,0.35,-0.28,0.30,0.54
0.494,0.74,0.29,0.63,1.01
0.504,1.25,1.44,-0.25,1.93
0.514,0.54,1.14,-0.77,1.48
0.525,-0.47,0.15,-0.07,0.50
0.535,-1.54,-0.52,0.25,1.65
0.545,-1.89,-0.82,-0.22,2.07
0.555,-0.55,0.04,-0.58,0.80
0.565,-0.25,-0.35,-0.08,0.43
0.575,0.48,0.01,0.14,0.50
0.585,1.04,0.50,0.17,1.17
0.595,0.30,-0.05,-0.34,0.45
0.605,-0.66,-0.93,-0.15,1.15
0.615,0.41,-0.10,0.70,0.82
0.625,1.53,0.76,0.36,1.75
0.635,0.49,0.50,-0.65,0.95
0.645,0.16,0.74,-0.16,0.77
0.656,-0.59,0.44,-0.11,0.75
0.666,-1.88,-0.17,0.11,1.89
0.676,-1.46,-0.02,-0.53,1.55
0.686,-0.34,-0.25,-0.68,0.81
0.696,0.22,-0.13,0.51,0.57
0.706,0.82,-0.58,-0.02,1.00
0.716,0.36,-0.15,0.52,0.65
0.726,-0.04,-0.01,-0.47,0.47
0.736,-0.36,-0.11,-0.45,0.59
0.746,0.03,0.11,0.75,0.75
0.756,1.46,0.79,0.11,1.66
0.766,1.47,0.73,-0.54,1.72
0.777,0.29,0.07,0.23,0.37
0.786,-1.49,-0.34,-0.18,1.53
0.797,-2.20,0.39,0.18,2.24
0.807,-1.35,0.68,-0.88,1.75
0.817,-0.38,-0.37,-0.75,0.92
0.827,0.83,0.45,0.68,1.16
0.837,1.10,-0.97,0.33,1.50
0.847,0.08,-0.29,-0.21,0.36
0.857,-0.56,-1.00,-0.03,1.15
0.867,-0.54,-0.40,-0.63,0.93
0.877,0.69,1.13,1.19,1.78
0.888,1.38,1.14,-0.07,1.79
0.898,0.93,0.80,-1.29,1.78
0.908,0.60,0.27,1.22,1.38
0.918,-0.69,0.78,-0.37,1.11
0.928,-3.10,-1.53,-0.12,3.46
0.938,-1.60,-0.18,-1.02,1.91
0.948,0.03,0.22,-0.13,0.26
0.958,0.65,-0.19,0.41,0.79
0.968,1.47,0.18,0.21,1.50
0.978,0.38,-0.22,-0.03,0.44
0.988,-0.54,-0.51,-0.48,0.88
0.998,-0.87,-0.62,0.06,1.07
1.009,-0.25,-0.28,0.38,0.53
1.019,2.09,0.92,0.77,2.41
1.029,1.84,1.31,-0.88,2.42
1.039,0.07,0.81,-0.07,0.81
1.049,-0.94,0.65,0.02,1.14
1.059,-2.75,-0.14,-0.18,2.76
1.069,-2.01,-0.33,-0.85,2.21
1.079,0.05,-0.29,-0.04,0.30
1.089,0.86,-0.58,0.29,1.08
1.099,1.46,0.06,0.51,1.55
1.109,0.31,-0.45,-0.18,0.57
1.119,-0.31,-0.41,-0.60,0.79
1.130,-0.78,-0.66,0.06,1.02
1.140,-0.44,-0.25,0.50,0.71
1.150,1.36,1.16,0.79,1.95
1.160,1.65,1.30,-1.03,2.34
1.170,0.74,1.17,-0.41,1.44
1.180,-0.95,0.37,0.78,1.28
1.190,-2.74,-0.11,-0.78,2.85
1.200,-1.81,-0.70,-0.61,2.03
1.210,-0.21,-0.42,0.37,0.60
1.220,0.17,-0.80,-0.29,0.87
1.230,1.12,-0.57,0.19,1.27
1.241,0.94,0.06,0.50,1.06
1.251,-0.42,-0.48,-0.65,0.91
1.261,-0.52,-0.21,-0.09,0.57
1.271,0.76,0.67,0.82,1.30
1.281,1.10,0.95,-0.11,1.46
1.291,0.88,0.89,-0.69,1.43
1.301,0.38,0.80,0.19,0.91
1.311,-1.54,0.29,0.11,1.57
1.321,-2.25,-0.31,-0.43,2.31
1.331,-1.20,-0.15,-0.80,1.45
1.341,-0.08,-0.39,0.04,0.40
1.351,0.78,-0.82,0.14,1.14
1.362,0.91,-0.25,0.69,1.17
1.372,0.24,-0.17,-0.18,0.35
1.382,-0.33,0.01,-0.67,0.75
1.392,-0.19,0.11,0.37,0.43
1.402,0.90,0.76,0.39,1.25
1.412,1.47,0.82,-0.25,1.71
1.422,0.82,0.41,-0.28,0.96
1.432,-0.66,-0.49,0.16,0.84
1.442,-1.71,-0.02,0.15,1.71
1.452,-1.94,0.31,-0.42,2.01
1.462,-1.05,-0.18,-1.04,1.49
1.472,0.21,0.54,0.18,0.61
1.483,1.04,-0.18,0.17,1.06
1.493,0.93,-0.52,0.25,1.09
1.503,-0.32,-0.65,0.24,0.77
1.513,-0.30,-0.76,-0.58,1.00
1.523,0.08,0.27,0.36,0.46
1.533,1.01,0.76,0.76,1.48
1.543,1.34,1.10,-1.01,2.01
1.553,0.65,1.01,0.04,1.20
1.563,-0.49,0.02,0.01,0.49
1.573,-2.37,-0.78,-0.15,2.50
1.583,-1.90,0.06,-0.07,1.90
1.593,-0.44,0.06,-0.80,0.92
1.603,0.39,0.02,0.07,0.39
1.614,0.96,0.21,0.38,1.05
1.624,0.76,-0.55,-0.15,0.95
1.634,-0.31,-0.54,0.03,0.62
1.644,-0.92,-1.11,-0.31,1.47
1.654,0.39,-0.03,0.64,0.75
1.664,2.12,1.65,0.80,2.80
1.674,1.02,0.96,-1.26,1.88
1.684,0.28,1.12,-0.23,1.18
1.694,-0.46,0.49,0.40,0.78
1.704,-2.68,-0.83,-0.23,2.81
1.715,-2.13,-0.42,-0.48,2.23
1.725,-0.11,-0.18,-0.48,0.52
1.734,0.75,-0.29,0.12,0.81
1.745,0.98,-0.14,0.56,1.14
1.755,0.73,0.08,-0.01,0.74
1.765,-0.45,-0.25,-0.40,0.65
1.775,-0.61,-0.43,-0.37,0.83
1.785,-0.35,-0.31,0.54,0.72
1.795,1.36,0.82,0.98,1.87
1.805,1.79,1.13,-1.09,2.38
1.815,0.58,0.83,0.05,1.02
1.825,-0.55,0.06,-0.07,0.55
1.835,-2.51,-0.30,-0.10,2.53
1.846,-2.06,0.07,-0.35,2.09
1.856,-0.88,-0.91,-0.59,1.39
1.866,0.32,-0.09,0.06,0.34
1.876,1.26,-0.31,0.31,1.33
1.886,1.41,-0.05,0.36,1.45
1.896,-0.29,-0.29,-0.29,0.50
1.906,-0.67,-0.27,-0.25,0.77
1.916,0.06,0.40,0.30,0.51
1.926,0.97,0.72,0.35,1.26
1.936,1.03,0.63,-0.66,1.38
1.946,0.76,0.53,0.33,0.98
1.957,-0.48,0.10,-0.14,0.51
1.967,-2.18,-0.37,0.06,2.21
1.977,-2.13,0.13,-0.84,2.29
1.987,-0.61,-0.38,-0.55,0.90
1.997,0.43,-0.07,0.25,0.50
2.007,0.92,-0.27,0.45,1.06
2.017,0.99,-0.22,0.40,1.10
2.027,-0.22,-0.02,-0.73,0.76
2.037,-0.54,-0.40,-0.06,0.68
2.047,0.62,0.52,0.75,1.11
2.057,1.43,0.81,-0.02,1.64
2.067,0.95,0.48,-0.51,1.18
2.078,0.01,0.52,0.25,0.57
2.088,-1.26,0.15,-0.13,1.28
2.098,-1.90,0.04,-0.06,1.90
2.108,-1.81,-0.32,-1.06,2.12
2.118,-0.14,-0.41,-0.22,0.49
2.128,0.88,-0.23,0.45,1.01
2.138,0.88,-0.70,0.46,1.21
2.148,0.07,-0.30,0.12,0.33
2.158,-0.34,0.15,-0.66,0.76
2.168,-0.14,0.15,0.05,0.21
2.178,1.22,1.17,0.65,1.81
2.188,1.14,0.00,0.15,1.15
2.199,0.87,1.17,-0.76,1.65
2.209,-0.37,-0.49,0.42,0.74
2.219,-2.12,-0.55,-0.43,2.23
2.229,-2.00,0.09,0.21,2.02
2.239,-0.92,0.02,-1.07,1.41
2.249,0.32,0.39,0.01,0.50
2.259,0.81,-0.01,0.24,0.84
2.269,0.95,-0.25,0.01,0.98
2.279,-0.10,-0.37,0.28,0.48
2.289,-0.72,-0.64,-0.51,1.09
2.300,0.18,0.13,0.56,0.60
2.310,1.55,1.20,0.50,2.03
2.320,1.17,0.74,-0.81,1.61
2.330,0.56,1.05,0.02,1.19
2.340,-0.44,0.18,0.03,0.48
2.350,-2.12,-1.27,-0.27,2.48
2.360,-1.80,-0.15,0.18,1.82
2.370,-0.71,-0.06,-0.73,1.01
2.380,0.49,0.26,-0.20,0.59
2.390,0.73,0.50,0.43,0.98
2.400,0.53,-0.36,-0.25,0.68
2.410,-0.07,0.04,0.02,0.09
2.420,-0.45,-1.00,-0.18,1.11
2.431,-0.69,-0.91,0.11,1.15
2.441,0.96,0.54,1.13,1.58
2.451,2.21,1.60,-0.62,2.80
2.461,0.51,0.78,-0.66,1.15
2.471,-0.18,0.56,0.17,0.61
2.481,-1.66,-0.47,-0.06,1.73
2.491,-2.30,-0.74,0.01,2.42
2.501,-0.95,-0.05,-0.63,1.14
2.511,-0.32,-0.37,-0.30,0.57
2.521,1.01,0.66,0.31,1.25
2.531,1.28,0.17,0.18,1.30
2.541,0.13,-0.33,-0.28,0.45
2.551,-0.68,-0.57,-0.05,0.89
2.562,0.11,-0.51,0.07,0.53
2.572,0.59,0.15,0.88,1.07
2.582,1.12,0.95,-0.25,1.49
2.592,0.65,1.09,-0.81,1.50
2.602,-0.11,0.60,0.17,0.63
2.612,-1.10,-0.52,-0.08,1.22
2.622,-1.98,-0.75,0.12,2.13
2.632,-0.86,0.19,-0.63,1.09
2.642,-0.36,-0.75,-0.46,0.95
2.652,0.18,0.25,0.64,0.71
2.663,0.94,0.33,0.12,1.00
2.672,0.42,0.04,-0.50,0.66
2.683,-0.36,-0.23,0.02,0.43
2.693,0.22,-0.44,0.42,0.64
2.703,1.53,0.57,0.39,1.67
2.713,0.80,0.35,-0.31,0.93
2.723,-0.09,0.10,-0.35,0.38
2.733,-0.40,1.00,0.47,1.18
2.743,-1.42,-0.07,-0.40,1.48
2.753,-1.94,-0.05,-0.60,2.03
2.763,-0.36,0.53,-0.55,0.84
2.773,0.27,-0.63,0.09,0.69
2.783,0.64,-0.30,0.78,1.06
2.794,0.70,-0.31,0.09,0.77
2.804,-0.35,-0.66,-0.51,0.91
2.814,-0.17,0.48,-0.28,0.58
2.824,-0.18,-0.50,0.45,0.70
2.834,1.08,0.81,0.51,1.45
2.844,1.50,0.98,-0.41,1.84
2.854,0.48,0.14,-0.38,0.63
2.864,-0.79,0.28,0.20,0.86
2.874,-2.27,-0.34,0.15,2.30
2.884,-1.63,0.63,-0.65,1.86
2.894,-0.52,-0.00,-0.72,0.88
2.904,0.60,-0.09,0.09,0.61
2.915,1.23,-0.01,0.55,1.35
2.925,0.47,-0.74,0.17,0.90
2.935,-0.83,-0.88,-0.34,1.26
2.945,-0.92,-0.92,-0.29,1.33
2.955,0.79,0.60,0.48,1.10
2.965,1.70,1.02,0.97,2.21
2.975,1.28,1.17,-1.10,2.05
2.985,0.57,1.02,-0.22,1.19
2.995,-0.66,0.67,0.27,0.98
3.005,-2.86,-0.63,-0.16,2.94
3.016,-1.86,-0.41,-0.47,1.96
3.026,-0.06,-0.29,-0.46,0.55
3.036,0.72,-0.08,0.43,0.85
3.046,1.01,-0.48,0.06,1.12
3.056,0.38,-0.11,0.22,0.45
3.066,-0.32,-0.12,-0.46,0.57
3.076,-1.09,-0.90,-0.28,1.45
3.086,-0.15,0.26,0.41,0.51
3.096,1.30,0.26,0.65,1.47
3.106,1.79,1.28,-0.38,2.23
3.116,0.97,0.87,-0.38,1.36
3.126,-0.60,0.20,0.07,0.64
3.136,-2.40,0.23,0.04,2.42
3.147,-2.50,-0.39,-0.63,2.60
3.157,-0.40,-0.26,-0.53,0.72
3.167,0.46,-0.57,0.25,0.77
3.177,1.17,-0.34,0.22,1.24
3.187,0.75,-0.11,0.58,0.96
3.197,0.01,-0.44,-0.69,0.82
3.207,-0.52,-0.65,-0.48,0.96
3.217,-0.56,-0.38,0.73,0.99
3.227,1.12,1.05,0.91,1.78
3.237,1.48,0.97,-1.09,2.08
3.247,0.92,0.98,-0.34,1.38
3.258,-0.68,0.41,0.41,0.89
3.268,-2.52,0.28,0.05,2.53
3.278,-1.42,0.12,-0.89,1.68
3.288,-0.88,-0.99,-0.50,1.41
3.298,0.48,0.25,0.44,0.70
3.308,0.81,-1.04,0.26,1.34
3.318,0.58,0.03,0.16,0.60
3.328,-0.19,-0.48,-0.27,0.58
3.338,-0.15,-0.67,-0.46,0.83
3.348,0.75,0.63,0.87,1.30
3.358,1.20,0.56,0.44,1.39
3.368,0.55,0.66,-1.03,1.35
3.379,0.13,1.13,0.24,1.16
3.388,-0.87,0.61,-0.01,1.06
3.399,-2.56,-0.34,-0.41,2.61
3.409,-0.91,0.30,-0.59,1.12
3.419,0.06,-0.66,-0.33,0.74
3.429,0.61,-0.55,0.59,1.01
3.439,0.61,-0.45,0.52,0.92
3.449,0.07,-0.56,-0.41,0.70
3.459,-0.22,0.30,-0.35,0.51
3.469,-0.16,-0.37,0.02,0.41
3.479,1.00,0.58,0.83,1.42
3.489,1.25,1.34,0.03,1.84
3.500,0.78,0.39,-0.93,1.27
3.510,-0.50,0.07,0.15,0.53
3.520,-1.29,-0.02,0.37,1.35
3.530,-1.98,-0.27,-0.23,2.01
3.540,-0.99,0.34,-0.69,1.26
3.550,0.04,0.11,-0.43,0.45
3.560,0.54,-0.18,0.22,0.61
3.570,0.65,-0.50,0.45,0.94
3.580,-0.11,-1.02,-0.18,1.05
3.590,-0.10,-0.29,-0.13,0.33
3.600,0.37,0.18,0.33,0.52
3.610,1.18,0.79,0.38,1.47
3.621,0.93,1.10,-0.39,1.49
3.631,0.88,1.11,-0.54,1.51
3.641,-0.36,0.17,0.45,0.60
3.651,-2.14,-1.21,-0.22,2.47
3.661,-1.67,-0.22,-0.06,1.69
3.671,-0.80,0.01,-0.60,1.00
3.681,0.21,0.04,-0.14,0.26
3.691,0.87,0.31,0.20,0.94
3.701,0.56,-0.07,0.18,0.59
3.711,0.01,-0.04,-0.28,0.28
3.721,-0.65,-0.84,-0.21,1.08
3.732,-0.70,-0.90,0.27,1.18
3.742,1.68,0.81,0.77,2.02
3.752,1.63,1.01,-0.17,1.92
3.762,0.76,1.06,-0.81,1.54
3.772,-0.36,0.29,0.33,0.57
3.782,-1.90,0.28,-0.13,1.92
3.792,-2.53,-0.54,-0.34,2.61
3.802,-1.12,-0.57,-0.67,1.42
3.812,0.47,-0.10,-0.09,0.49
3.822,1.08,-0.32,0.56,1.26
3.832,0.81,-0.11,0.17,0.84
3.842,0.03,-0.15,-0.14,0.21
3.853,-0.26,-0.27,-0.67,0.77
3.863,-0.16,-0.33,0.45,0.58
3.873,0.85,0.74,1.22,1.66
3.883,1.00,0.68,-1.21,1.71
3.893,1.03,0.56,-0.09,1.17
3.903,-0.05,0.60,0.26,0.66
3.913,-2.24,-0.55,-0.03,2.31
3.923,-1.94,0.47,-0.36,2.03
3.933,-1.20,-0.50,-1.19,1.76
3.943,-0.21,-0.17,0.34,0.44
3.954,1.57,0.26,0.67,1.72
3.964,1.18,-0.72,-0.13,1.38
3.974,-0.02,0.04,0.21,0.21
3.984,-0.48,-0.54,-0.65,0.97
3.994,-0.08,0.24,0.53,0.58
4.004,1.26,1.09,0.50,1.74
4.014,0.59,-0.04,-0.95,1.12
4.024,0.82,1.22,0.40,1.52
4.034,-0.37,0.02,0.08,0.38
4.044,-1.92,-0.64,-0.40,2.06
4.054,-1.74,0.56,0.01,1.83
4.064,-0.71,-0.82,-1.48,1.84
4.074,0.40,-0.21,0.68,0.81
4.085,0.55,0.06,0.65,0.85
4.095,0.70,-0.44,-0.17,0.84
4.105,-0.11,0.41,-0.23,0.48
4.115,-0.64,-0.85,-0.48,1.17
4.125,0.67,0.22,0.57,0.91
4.135,1.64,1.00,1.11,2.22
4.145,0.82,0.32,-1.34,1.60
4.155,0.14,0.72,0.31,0.80
4.165,-1.20,0.21,-0.14,1.23
4.175,-2.05,-0.44,-0.29,2.11
4.185,-1.42,0.35,0.03,1.46
4.195,-0.59,-0.48,-1.11,1.34
4.206,0.91,-0.19,0.42,1.02
4.216,0.89,-0.02,0.56,1.05
4.226,0.01,-0.95,-0.29,0.99
4.236,-0.20,0.18,0.12,0.30
4.246,0.09,0.08,-0.28,0.30
4.256,0.54,0.17,0.33,0.66
4.266,1.46,1.11,0.44,1.89
4.276,0.89,0.81,-0.72,1.40
4.286,-0.15,0.30,0.22,0.40
4.296,-1.50,-0.59,-0.13,1.62
4.306,-1.81,-0.16,-0.12,1.82
4.317,-1.17,0.16,-0.38,1.24
4.327,0.11,0.11,-0.68,0.70
4.337,0.27,-0.12,0.42,0.52
4.347,0.86,0.05,0.15,0.88
4.357,0.29,-0.54,0.07,0.62
4.367,-1.02,-0.64,-0.32,1.25
4.377,-0.61,-0.75,0.03,0.96
4.387,1.44,0.81,0.64,1.77
4.397,1.39,0.80,0.08,1.61
4.407,1.07,0.86,-0.68,1.54
4.417,0.22,0.85,0.23,0.91
4.427,-1.56,-0.40,-0.16,1.62
4.437,-2.28,-0.67,-0.07,2.37
4.448,-1.70,-0.04,-0.50,1.77
4.458,0.29,0.07,-0.43,0.52
4.468,0.98,0.27,0.32,1.07
4.478,0.87,-0.22,0.06,0.90
4.488,0.23,-0.29,0.12,0.39
4.498,-0.66,-0.50,-0.44,0.94
4.508,-0.52,-0.68,0.13,0.86
4.518,0.33,-0.00,0.92,0.97
4.528,1.97,1.55,-0.30,2.52
4.538,0.91,0.91,-0.66,1.45
4.548,0.40,0.63,0.06,0.75
4.558,-1.16,-0.23,0.10,1.19
4.568,-2.35,-0.66,0.08,2.44
4.579,-1.43,-0.24,-0.68,1.60
4.589,-0.63,-0.09,-0.63,0.90
4.599,0.45,0.20,0.56,0.74
4.609,1.39,-0.09,-0.07,1.40
4.619,0.53,-0.18,0.30,0.64
4.629,-0.29,-0.26,-0.45,0.59
4.639,-0.08,-0.42,0.18,0.47
4.649,0.61,0.16,0.70,0.94
4.659,0.91,0.43,-0.42,1.09
4.669,0.64,1.27,-0.09,1.43
4.680,0.30,0.85,-0.11,0.90
4.690,-1.35,-0.72,-0.37,1.57
4.700,-1.63,-0.04,0.40,1.68
4.710,-1.04,-0.32,-0.81,1.36
4.720,-0.44,-0.43,-0.41,0.74
4.730,0.10,0.03,0.69,0.70
4.740,0.96,-0.16,-0.13,0.98
4.750,0.41,0.52,-0.05,0.66
4.760,-0.29,-0.54,-0.28,0.67
4.770,-0.18,-0.47,0.17,0.53
4.780,1.10,0.59,0.92,1.55
4.791,1.36,0.23,-0.68,1.54
4.801,0.26,0.68,-0.13,0.74
4.811,-0.26,0.56,0.27,0.67
4.821,-1.41,0.10,-0.41,1.47
4.831,-1.94,0.32,-0.07,1.97
4.841,-0.83,-0.06,-0.92,1.24
4.851,0.02,-0.08,-0.11,0.14
4.861,0.72,-0.60,0.76,1.21
4.871,0.43,-0.70,-0.11,0.83
4.881,-0.17,-0.28,-0.05,0.33
4.891,0.23,0.07,-0.42,0.48
4.901,0.05,-0.09,0.21,0.23
4.912,0.81,0.59,0.97,1.40
4.922,1.51,1.22,-0.62,2.04
4.932,0.46,0.55,-0.42,0.83
4.942,-0.68,0.30,0.22,0.78
4.952,-1.73,-0.13,-0.04,1.74
4.962,-1.78,0.12,-0.20,1.80
4.972,-0.36,0.23,-0.96,1.05
4.982,0.12,-0.51,0.09,0.53
4.992,0.71,0.14,0.51,0.88
5.002,0.64,-0.72,0.13,0.97
5.012,-0.44,-0.54,-0.23,0.73
5.022,-1.06,-0.55,-0.14,1.20
5.033,-0.03,-0.50,-0.54,0.74
5.043,1.15,0.69,1.44,1.96
5.053,1.60,0.98,0.10,1.88
5.063,0.85,0.78,-1.22,1.68
5.073,0.42,1.02,0.33,1.15
5.083,-2.10,-0.18,-0.02,2.11
5.093,-2.53,0.20,-0.11,2.54
5.103,-1.08,-0.89,-0.82,1.62
5.113,0.55,-0.34,0.02,0.64
5.123,0.72,-0.27,0.45,0.89
5.133,0.77,-0.63,0.15,1.01
5.143,0.29,-0.03,-0.13,0.32
5.154,-0.73,-0.47,-0.40,0.95
5.164,-0.40,-0.18,-0.04,0.44
5.174,0.37,0.02,0.70,0.80
5.184,1.96,1.36,0.34,2.41
5.194,1.31,1.04,-0.89,1.89
5.204,-0.16,0.48,-0.09,0.52
5.214,-1.75,0.68,0.47,1.94
5.224,-2.63,-0.33,-0.73,2.74
5.234,-1.30,-0.49,-0.76,1.58
5.244,0.44,0.04,0.33,0.55
5.254,0.88,-1.11,0.01,1.42
5.265,1.05,-0.02,0.88,1.37
5.275,0.18,-0.55,-0.59,0.83
5.285,-0.36,-0.73,-0.64,1.03
5.295,-0.63,-0.13,0.50,0.81
5.305,0.40,0.41,0.88,1.05
5.315,1.54,1.18,-0.44,1.99
5.325,1.35,1.26,-0.74,2.00
5.335,-0.50,0.35,0.16,0.63
5.345,-1.89,0.57,0.39,2.01
5.355,-1.86,-0.15,-0.95,2.09
5.365,-1.14,-0.87,-0.50,1.52
5.376,0.28,0.03,0.51,0.59
5.385,0.43,-1.38,-0.09,1.45
5.396,1.17,0.60,0.60,1.45
5.406,0.22,-0.27,-0.18,0.39
5.416,-0.42,-0.53,-1.06,1.25
5.426,0.32,0.57,0.99,1.19
5.436,1.07,0.48,0.45,1.25
5.446,0.57,0.54,-0.67,1.03
5.456,0.59,1.05,0.11,1.21
5.466,-0.72,0.40,-0.10,0.83
5.476,-2.34,0.04,-0.23,2.35
5.486,-1.50,-0.03,-0.58,1.61
5.496,-0.28,-0.40,-0.50,0.70
5.506,0.50,-0.54,0.58,0.93
5.517,0.62,-0.66,0.23,0.94
5.527,0.55,-0.00,0.07,0.55
5.537,0.38,0.14,-0.32,0.52
5.547,-0.29,-0.29,-0.49,0.64
5.557,0.22,0.14,1.19,1.22
5.567,2.37,2.19,0.44,3.26
5.577,1.64,1.89,-0.86,2.64
5.587,1.22,1.59,0.73,2.13
5.597,0.63,1.92,0.08,2.02
5.607,-1.65,-0.92,-1.08,2.18
5.617,-1.22,0.27,-0.04,1.25
5.627,-1.25,-0.70,-0.08,1.43
5.638,-0.97,-1.69,0.27,1.97
5.648,0.09,-0.13,0.53,0.55
5.658,0.93,-0.77,-0.86,1.49
5.668,0.14,-0.18,-0.59,0.63
5.678,-0.02,0.09,0.55,0.55
5.688,-0.26,-0.60,0.11,0.66
5.698,-0.55,-0.03,0.21,0.58
5.708,-0.17,-0.24,-0.79,0.85
5.718,-0.07,-0.38,-0.60,0.71
5.728,-0.37,-0.03,0.71,0.80
5.739,-1.84,0.06,0.07,1.84
5.749,-2.83,0.98,-0.83,3.11
5.759,-1.88,2.24,-0.94,3.07
5.769,-0.87,1.77,-0.74,2.11
5.779,-0.33,-0.00,-0.24,0.40
5.789,0.92,-0.76,0.65,1.36
5.799,1.01,-1.66,0.57,2.02
5.809,0.17,-1.46,0.07,1.47
5.819,-0.23,-0.55,0.02,0.59
5.829,-0.05,0.16,-0.73,0.75
5.839,-0.42,-0.65,-1.00,1.26
5.849,-0.58,-1.31,0.11,1.43
5.859,-0.18,-0.98,0.99,1.40
5.870,-0.20,-0.84,-0.28,0.91
5.880,-0.15,-0.44,-0.75,0.88
5.890,-0.53,-0.02,0.09,0.54
5.900,-0.07,0.22,-0.38,0.44
5.910,-0.28,-1.30,-0.06,1.33
5.920,1.48,1.11,1.77,2.56
5.930,4.70,2.96,1.45,5.74
5.940,2.27,1.84,-3.12,4.27
5.950,0.32,1.04,0.80,1.35
5.960,0.60,1.25,0.99,1.71
5.970,-2.05,-1.41,-0.47,2.53
5.981,-0.79,-1.18,0.37,1.47
5.991,0.18,-1.02,-0.16,1.04
6.001,0.58,-1.91,-0.63,2.10
6.011,1.26,-0.62,0.64,1.54
6.021,0.53,-0.86,0.06,1.01
6.031,0.00,-0.96,0.09,0.96
6.041,0.69,0.56,-0.29,0.93
6.051,-0.14,-1.23,-0.26,1.27
6.061,-0.43,-0.26,0.33,0.60
6.071,-0.86,1.30,1.03,1.86
6.081,-3.66,4.32,0.46,5.68
6.091,0.17,3.10,-4.29,5.30
6.101,0.69,1.90,-0.38,2.06
6.112,0.46,0.14,1.65,1.72
6.122,0.11,-1.75,0.18,1.76
6.132,-1.34,-0.60,1.48,2.09
6.142,-0.99,-0.70,-1.34,1.81
6.152,-0.24,-1.88,-1.54,2.45
6.162,-0.73,-0.30,0.58,0.98
6.172,0.01,-0.28,0.45,0.53
6.182,1.49,0.70,0.81,1.83
6.192,-0.53,0.33,-0.60,0.87
6.202,0.55,-0.20,-0.58,0.82
6.212,1.65,1.65,0.54,2.39
6.223,0.29,0.51,-0.11,0.60
6.233,0.18,-0.01,0.45,0.48
6.243,-0.21,0.30,-0.28,0.46
6.253,-1.63,-0.61,-0.51,1.81
6.263,-1.32,0.47,0.04,1.40
6.273,-1.23,-0.88,-0.95,1.78
6.283,0.06,-0.14,0.47,0.49
6.293,0.94,0.28,0.10,0.99
6.303,0.41,-0.87,-0.13,0.97
6.313,-0.20,0.30,0.34,0.50
6.323,-0.08,-0.23,-0.82,0.86
6.333,-0.18,-0.61,0.80,1.02
6.343,1.22,1.29,0.78,1.94
6.354,0.95,-0.13,-1.27,1.59
6.364,0.86,0.68,0.28,1.13
6.374,-0.22,0.78,0.21,0.83
6.384,-2.51,-0.83,-0.28,2.66
6.394,-1.76,0.43,-0.25,1.83
6.404,-0.44,0.28,-0.72,0.89
6.414,0.45,-0.05,-0.30,0.55
6.424,0.84,-0.33,0.97,1.33
6.434,0.48,-0.56,-0.47,0.88
6.444,-0.44,-0.67,0.26,0.84
6.455,-0.62,-0.38,-0.25,0.77
6.465,0.44,0.00,0.33,0.55
6.475,1.58,1.20,0.55,2.05
6.485,1.26,0.89,-0.79,1.73
6.495,0.46,0.74,-0.12,0.88
6.505,-0.79,0.36,0.53,1.02
6.515,-2.42,-0.77,-0.47,2.58
6.525,-2.10,-0.07,-0.54,2.17
6.535,-0.16,0.14,-0.51,0.55
6.545,0.60,-0.21,0.25,0.68
6.555,1.06,-0.22,0.48,1.18
6.565,0.64,-0.30,0.56,0.90
6.575,-0.45,0.71,2.53,2.66
6.586,-0.64,-0.14,-0.37,0.76
6.596,0.87,1.86,0.38,2.09
6.606,0.93,-0.80,-1.35,1.82
6.616,0.84,0.98,-1.91,2.30
6.626,-0.09,0.62,1.46,1.58
6.636,-0.81,-0.97,0.12,1.27
6.646,-1.18,2.37,0.06,2.65
6.656,-1.25,0.51,-0.59,1.47
6.666,-0.24,0.76,-2.12,2.26
6.676,-0.02,0.18,1.02,1.03
6.686,0.17,0.59,0.76,0.97
6.697,0.18,0.19,-1.02,1.05
6.707,0.13,0.71,-0.36,0.81
6.717,0.37,0.30,-0.13,0.49
6.727,1.15,0.87,0.63,1.57
6.737,0.78,0.02,0.66,1.02
6.747,0.23,0.32,-1.47,1.53
6.757,-0.19,0.12,0.55,0.60
6.767,-0.97,0.02,-0.25,1.00
6.777,-1.24,0.63,0.09,1.39
6.787,-1.07,0.11,-0.46,1.18
6.797,-0.29,-0.04,-1.20,1.23
6.807,0.29,-0.27,1.14,1.21
6.818,0.49,-0.32,-0.36,0.69
6.828,0.27,-0.01,0.28,0.39
6.838,-0.24,-0.24,-0.41,0.53
6.848,-0.11,0.08,-0.30,0.33
6.858,0.62,0.05,1.33,1.47
6.868,1.20,-0.49,-0.13,1.30
6.878,0.49,-0.00,-0.76,0.91
6.888,0.03,0.20,0.62,0.65
6.898,-0.96,0.40,-0.24,1.06
6.908,-1.58,1.04,-0.30,1.92
6.918,-0.87,-0.29,-1.21,1.52
6.928,-0.22,-0.23,0.01,0.31
6.939,0.47,-0.32,1.18,1.31
6.949,0.39,-0.30,-0.36,0.61
6.959,0.15,0.09,-0.20,0.27
6.969,-0.35,-0.31,-0.58,0.74
6.979,-0.05,-0.04,0.29,0.30
6.989,0.47,-0.39,1.04,1.21
6.999,0.86,-1.07,0.22,1.39
7.009,0.39,-1.00,-1.13,1.56
7.019,-0.00,-0.12,0.74,0.75
7.029,-1.35,0.08,0.58,1.47
7.039,-1.40,-0.21,-1.85,2.33
7.050,-0.40,-0.88,-0.90,1.32
7.060,-0.27,-0.64,0.00,0.70
7.070,-0.01,-2.34,0.77,2.46
7.080,0.12,-0.27,1.19,1.23
7.090,0.26,-0.01,-0.76,0.80
7.100,-0.31,0.83,-2.86,3.00
7.110,0.60,4.68,-3.69,6.00
7.120,2.19,4.15,-0.43,4.71
7.130,1.27,4.16,0.64,4.40
7.140,0.45,4.04,0.50,4.10
7.150,0.42,2.28,-2.69,3.55
7.160,-3.15,-9.99,11.83,15.80
7.171,-2.15,0.11,-5.87,6.26
7.181,1.22,-0.14,-2.54,2.82
7.191,-2.68,-4.53,9.73,11.06
7.201,-0.09,-1.01,-3.36,3.51
7.211,0.16,-0.56,-4.62,4.66
7.221,-0.59,-0.96,0.05,1.12
7.231,0.42,-0.86,0.63,1.14
7.241,0.04,-1.25,2.29,2.61
7.251,0.53,-0.88,0.70,1.25
7.261,2.14,0.48,-0.20,2.20
7.271,2.25,1.56,-1.74,3.24
7.282,0.50,0.27,-1.22,1.34
7.292,0.15,0.06,1.77,1.78
7.302,-2.65,-0.48,0.05,2.69
7.312,-2.29,-0.87,-0.37,2.48
7.322,-0.44,0.51,-0.72,0.99
7.332,0.08,-0.42,-0.67,0.80
7.342,1.68,0.22,0.87,1.91
7.352,1.03,-0.14,0.28,1.07
7.362,-0.36,-0.39,0.03,0.54
7.372,-0.00,-0.16,-0.51,0.54
7.382,-0.30,-0.18,0.73,0.80
7.392,1.17,1.06,-0.55,1.68
7.403,1.18,0.41,-0.04,1.25
7.413,0.34,1.00,-0.02,1.06
7.423,-1.86,0.22,0.82,2.04
7.433,-2.19,0.38,-1.65,2.76
7.443,-1.30,-0.75,-0.38,1.55
7.453,-0.02,-0.13,-0.05,0.15
7.463,0.76,-0.65,0.85,1.32
7.473,1.57,-0.29,0.21,1.61
7.483,0.20,0.28,-0.00,0.35
7.493,-0.46,-0.61,-1.14,1.38
7.503,-0.22,-0.11,0.51,0.56
7.513,0.53,0.65,0.74,1.12
7.523,1.19,0.66,-0.03,1.36
7.534,0.96,1.23,-0.44,1.62
7.544,-0.10,0.29,-0.40,0.50
7.554,-1.78,0.11,0.13,1.79
7.564,-2.37,-0.36,-0.15,2.40
7.574,-0.81,-0.10,-0.67,1.05
7.584,0.38,-0.01,0.15,0.41
7.594,0.76,-0.60,0.09,0.97
7.604,0.76,-0.09,0.12,0.77
7.614,0.16,-0.22,0.08,0.28
7.624,-0.71,-0.48,-0.58,1.03
7.635,-0.14,-0.27,0.61,0.68
7.645,1.15,0.63,0.16,1.32
7.655,1.30,0.90,0.02,1.58
7.665,0.69,0.79,-0.70,1.26
7.675,-0.86,-0.05,0.43,0.96
7.685,-1.53,0.05,-0.36,1.57
7.695,-1.76,0.10,0.15,1.77
7.705,-0.59,-0.10,-0.96,1.13
7.715,0.37,-0.14,0.05,0.39
7.725,0.94,0.03,0.08,0.94
7.735,0.28,-0.79,0.43,0.94
7.745,-0.74,-0.94,-0.29,1.24
7.756,-0.28,-0.55,-0.17,0.64
7.766,0.41,0.40,0.36,0.68
7.776,1.72,0.94,0.90,2.16
7.786,1.37,1.23,-1.26,2.23
7.796,0.21,0.57,0.07,0.61
7.806,-0.62,0.50,0.04,0.80
7.816,-2.71,-0.78,0.12,2.83
7.826,-1.89,-0.10,-0.58,1.98
7.836,0.01,0.31,-0.63,0.70
7.846,0.40,-0.27,-0.03,0.49
7.856,1.02,-0.41,0.49,1.20
7.866,0.79,-0.23,0.11,0.83
7.876,-0.39,-0.70,-0.04,0.80
7.887,-0.97,-0.97,-0.64,1.52
7.897,0.49,0.66,0.89,1.21
7.907,1.72,1.31,0.69,2.27
7.917,0.82,0.45,-1.81,2.04
7.927,0.52,1.05,0.63,1.33
7.937,-0.47,0.57,0.33,0.81
7.947,-2.35,-0.52,-0.23,2.42
7.957,-2.22,-0.10,-0.72,2.33
7.967,-0.52,-0.29,-0.89,1.07
7.977,0.79,-0.26,0.49,0.97
7.988,0.71,-0.58,0.87,1.27
7.997,0.42,-0.27,-0.28,0.57
8.008,0.16,-0.29,-0.21,0.39
8.018,-0.08,0.02,-0.43,0.44
8.028,0.23,0.04,0.88,0.91
8.038,1.24,0.99,0.16,1.59
8.048,0.85,1.08,-0.60,1.50
8.058,0.15,0.92,-0.05,0.93
8.068,-1.04,-0.23,0.15,1.08
8.078,-2.14,-0.07,-0.52,2.20
8.088,-1.61,-0.57,-0.41,1.76
8.098,-0.14,-0.42,-0.29,0.53
8.109,0.40,-0.20,0.48,0.66
8.119,1.36,0.02,0.12,1.36
8.129,0.85,0.02,-0.17,0.87
8.139,-0.70,-0.22,-0.10,0.74
8.149,-0.38,-0.14,-0.17,0.44
8.159,0.33,0.42,0.69,0.87
8.169,1.01,0.75,-0.12,1.27
8.179,1.12,0.46,-0.42,1.28
8.189,0.57,0.81,0.04,0.99
8.199,-0.86,-0.18,0.27,0.92
8.209,-2.50,-0.41,-0.31,2.55
8.219,-1.78,-0.02,-0.89,1.99
8.229,-0.02,-0.31,-0.38,0.49
8.240,0.47,-0.46,0.57,0.87
8.250,0.70,-0.22,0.35,0.81
8.260,0.52,-0.24,-0.03,0.57
8.270,-0.49,-0.12,-0.70,0.87
8.280,-0.50,-0.56,0.09,0.75
8.290,0.83,0.15,0.76,1.14
8.300,1.61,1.11,0.31,1.98
8.310,0.72,0.65,-0.82,1.27
8.320,0.06,0.92,-0.05,0.92
8.330,-1.43,-0.28,-0.12,1.46
8.340,-1.62,0.36,0.21,1.67
8.351,-1.41,-0.37,-0.63,1.59
8.361,-0.16,-0.78,-0.70,1.05
8.371,0.63,0.04,0.48,0.79
8.381,0.61,-0.70,0.19,0.95
8.391,-0.15,-0.35,0.30,0.48
8.401,-0.25,-0.12,-0.51,0.58
8.411,-0.02,-0.12,-0.28,0.30
8.421,1.44,0.84,1.13,2.02
8.431,1.40,0.87,-0.45,1.71
8.441,0.52,0.68,-0.24,0.89
8.451,-0.50,0.61,0.05,0.79
8.462,-2.21,-0.37,-0.27,2.25
8.472,-1.95,-0.07,-0.21,1.96
8.482,-0.49,-0.06,-0.76,0.90
8.492,0.28,-0.66,0.18,0.74
8.502,0.71,-0.22,0.29,0.80
8.512,0.63,-0.35,0.14,0.73
8.522,-0.07,-0.38,-0.20,0.44
8.532,-0.80,-0.59,-0.29,1.04
8.542,0.42,0.93,0.79,1.29
8.552,1.67,1.21,0.15,2.06
8.562,1.01,0.73,-1.11,1.66
8.572,0.59,0.77,0.42,1.05
8.583,-0.59,-0.22,0.01,0.63
8.593,-1.88,-0.94,0.02,2.10
8.603,-2.20,-0.38,-0.20,2.24
8.613,-0.54,0.16,-0.99,1.14
8.623,0.35,0.57,0.33,0.75
8.633,0.59,-0.02,0.09,0.60
8.643,1.00,0.00,-0.05,1.00
8.653,-0.10,-0.18,0.21,0.30
8.663,-0.56,-1.16,-0.47,1.37
8.673,-0.03,-0.44,0.47,0.65
8.683,1.50,1.09,0.98,2.10
8.694,1.14,1.12,-1.06,1.92
8.703,0.24,1.00,-0.25,1.06
8.714,-0.51,0.33,0.06,0.62
8.724,-2.05,-0.87,-0.22,2.23
8.734,-1.66,-0.51,0.06,1.74
8.744,-0.49,-0.27,-0.65,0.86
8.754,-0.19,-0.19,0.01,0.27
8.764,1.25,0.90,0.32,1.57
8.774,0.94,-0.35,-0.21,1.03
8.784,-0.40,-0.06,-0.09,0.42
8.794,-0.29,-0.33,-0.01,0.44
8.804,0.16,-0.54,0.39,0.68
8.814,0.96,0.49,0.45,1.17
8.825,1.29,1.02,-0.53,1.73
8.835,0.34,0.83,-0.40,0.98
8.845,-0.15,0.68,0.41,0.81
8.855,-1.91,-0.89,-0.45,2.15
8.865,-2.00,-0.51,-0.29,2.08
8.875,-0.18,0.33,-0.38,0.53
8.885,-0.53,-1.18,-0.21,1.31
8.895,0.16,-0.06,0.81,0.83
8.905,1.15,0.57,-0.46,1.37
8.916,-0.07,-0.23,-0.36,0.43
8.925,-0.34,-0.26,0.19,0.47
8.935,0.32,-0.43,0.25,0.59
8.946,1.21,0.70,0.66,1.55
8.956,1.04,0.48,-0.60,1.29
8.966,0.06,0.48,-0.23,0.53
8.976,-0.51,0.68,0.17,0.86
8.986,-1.43,-0.09,-0.18,1.44
8.996,-1.84,-0.09,-0.42,1.89
9.006,-0.37,-0.14,-0.64,0.75
9.016,0.37,-0.21,0.22,0.48
9.026,0.47,-0.56,0.35,0.81
9.036,0.27,-0.33,0.30,0.52
9.046,-0.05,-0.13,-0.53,0.55
9.057,-0.42,-0.26,-0.33,0.59
9.067,0.34,-0.04,0.50,0.61
9.077,1.56,0.57,0.68,1.80
9.087,1.23,1.08,-0.38,1.68
9.097,-0.14,0.21,-0.56,0.61
9.107,-0.81,0.82,0.13,1.16
9.117,-2.26,0.30,0.10,2.29
9.127,-1.78,-0.15,-0.94,2.02
9.137,0.20,0.02,-0.35,0.40
9.147,0.79,-0.44,0.32,0.96
9.157,0.77,-0.82,0.36,1.18
9.167,0.25,-0.53,0.22,0.63
9.177,-0.87,-0.84,-0.27,1.24
9.188,-0.83,-0.13,-0.54,0.99
9.198,0.83,0.76,0.62,1.28
9.208,1.64,1.14,0.61,2.09
9.218,1.12,0.74,-0.97,1.66
9.228,0.92,0.55,0.04,1.07
9.238,-0.78,0.35,0.32,0.92
9.248,-3.22,-0.36,-0.00,3.24
9.258,-1.70,-0.57,-1.16,2.14
9.268,0.07,0.27,-0.37,0.46
9.278,0.53,0.13,0.72,0.90
9.288,1.11,-0.80,-0.13,1.37
9.299,0.35,-0.11,0.36,0.52
9.309,-0.31,-0.55,-0.54,0.83
9.319,-0.71,-0.84,-0.22,1.12
9.329,-0.06,0.23,0.52,0.57
9.339,1.73,0.77,0.85,2.08
9.349,1.46,1.64,-0.89,2.37
9.359,0.19,0.95,-0.22,0.99
9.369,-0.86,0.39,-0.25,0.98
9.379,-2.65,-0.36,0.45,2.72
9.389,-1.71,-0.47,-0.90,1.99
9.399,0.00,-0.72,-0.14,0.73
9.409,0.76,-0.24,0.27,0.84
9.420,1.01,-0.57,0.10,1.16
9.430,0.43,0.05,0.28,0.52
9.440,-0.16,-0.13,-0.53,0.57
9.450,-0.69,-0.58,-0.30,0.95
9.460,-0.17,0.15,0.85,0.88
9.470,1.71,1.25,0.38,2.15
9.480,1.43,0.93,-0.94,1.95
9.490,0.57,0.98,0.08,1.14
9.500,-1.43,0.02,0.16,1.44
9.510,-2.76,-0.32,-0.62,2.85
9.520,-1.41,-0.31,-0.54,1.54
9.531,-0.40,-0.74,0.34,0.91
9.541,0.60,-0.09,0.19,0.63
9.551,1.55,0.10,-0.17,1.57
9.561,0.33,0.10,0.21,0.40
9.571,-0.49,-0.73,-0.55,1.03
9.581,-0.62,-0.74,-0.02,0.97
9.591,0.08,0.28,0.69,0.75
9.601,1.24,0.51,0.47,1.42
9.611,1.19,0.96,-0.92,1.79
9.621,0.38,0.62,-0.28,0.78
9.631,-0.71,0.81,0.33,1.13
9.641,-2.58,-0.07,-0.00,2.58
9.651,-1.46,-0.42,-1.01,1.82
9.662,0.04,-0.15,-0.17,0.23
9.672,0.53,-0.72,0.28,0.94
9.682,0.71,-0.51,0.49,1.00
9.692,0.20,-0.24,0.06,0.32
9.702,-0.24,-0.18,-0.60,0.67
9.712,-0.24,-0.34,-0.03,0.42
9.722,0.92,0.59,0.70,1.30
9.732,1.66,1.15,0.29,2.04
9.742,0.65,0.61,-1.00,1.34
9.752,-0.48,0.60,0.38,0.86
9.762,-1.49,0.27,-0.03,1.52
9.773,-2.16,-0.43,-0.62,2.28
9.783,-0.80,0.05,-0.48,0.93
9.793,0.06,-0.63,-0.06,0.64
9.803,0.94,0.05,0.36,1.01
9.813,0.89,-0.56,0.35,1.11
9.823,-0.24,-1.04,-0.49,1.17
9.833,-0.64,-0.00,0.08,0.65
9.843,0.08,0.58,0.28,0.65
9.853,1.07,0.66,0.40,1.32
9.863,1.51,1.38,-0.66,2.16
9.873,0.96,0.38,-0.21,1.05
9.883,-0.18,0.07,0.27,0.33
9.893,-2.27,-0.80,0.25,2.42
9.904,-2.57,-0.74,-0.56,2.73
9.914,-0.50,0.89,-0.88,1.35
9.924,0.19,-0.18,0.02,0.26
9.934,0.90,-0.03,0.31,0.96
9.944,1.03,0.07,0.53,1.16
9.954,-0.02,-0.55,-0.38,0.67
9.964,-0.98,-1.05,-0.64,1.57
9.974,-0.04,-0.30,0.92,0.97
9.984,1.74,1.47,0.60,2.35
9.994,1.28,0.70,-0.90,1.72
10.004,0.70,1.25,-0.23,1.45
10.015,-0.88,0.39,0.16,0.97
10.025,-2.42,-0.73,-0.17,2.54
10.035,-1.92,-0.19,-0.37,1.97
10.045,-0.69,-0.69,-0.61,1.15
10.055,1.08,0.36,0.54,1.26
10.065,0.94,-0.20,-0.18,0.98
10.075,0.58,0.03,0.37,0.69
10.085,0.16,0.17,-0.40,0.46
10.095,-0.98,-0.88,-0.38,1.37
10.105,-0.51,-0.10,0.62,0.81
10.115,1.53,0.77,0.67,1.84
10.125,1.93,1.05,-1.02,2.42
10.136,0.74,0.81,0.27,1.13
10.146,-1.00,-0.12,-0.25,1.04
10.156,-2.46,-0.28,-0.08,2.47
10.166,-2.11,0.05,-0.30,2.13
10.176,-0.74,-0.67,-0.81,1.29
10.186,0.40,0.14,0.53,0.68
10.196,1.48,-0.04,-0.09,1.48
10.206,0.88,-0.28,0.16,0.94
10.216,-0.32,-0.17,0.17,0.40
10.226,-0.97,-0.93,-0.57,1.46
10.237,-0.13,0.16,0.21,0.30
10.247,1.37,0.73,0.90,1.79
10.257,1.18,0.73,-0.94,1.68
10.267,0.86,0.91,0.21,1.27
10.277,-0.23,0.83,0.00,0.86
10.287,-2.01,-0.72,-0.47,2.19
10.297,-2.09,0.08,-0.22,2.11
10.307,-0.78,-0.84,-1.09,1.59
10.317,0.20,-0.64,0.81,1.05
10.327,0.72,0.01,0.40,0.82
10.337,0.56,-0.83,-0.37,1.06
10.347,0.10,0.34,-0.05,0.35
10.358,-0.36,-0.16,-0.37,0.54
10.368,0.35,-0.11,0.60,0.70
10.378,1.64,1.50,0.78,2.35
10.388,0.71,0.33,-1.25,1.48
10.398,0.20,0.97,0.12,1.00
10.408,-0.80,0.22,0.07,0.84
10.418,-1.89,-0.69,-0.24,2.03
10.428,-1.71,0.31,0.03,1.74
10.438,-0.45,-0.78,-1.27,1.56
10.448,0.65,-0.46,0.44,0.91
10.458,0.64,-0.24,0.49,0.84
10.468,0.13,-1.22,-0.07,1.23
10.479,-0.24,0.44,0.20,0.53
10.489,0.04,0.25,-0.48,0.54
10.499,0.75,0.50,0.33,0.96
10.509,1.53,1.52,0.25,2.17
10.519,0.82,0.28,-0.71,1.12
10.529,0.08,0.47,0.42,0.64
10.539,-1.39,-0.17,0.14,1.41
10.549,-2.74,-0.97,-0.66,2.98
10.559,-1.02,0.61,-0.43,1.27
10.569,-0.22,-0.35,-0.47,0.62
10.579,0.55,-0.47,0.44,0.85
10.589,1.34,0.35,0.50,1.47
10.599,0.12,-0.83,-0.29,0.88
10.610,-0.62,-0.21,-0.39,0.76
10.620,-0.18,0.07,0.37,0.42
10.630,1.07,0.80,0.45,1.41
10.640,1.27,1.16,-0.45,1.78
10.650,0.81,0.70,-0.25,1.10
10.660,-0.15,0.35,-0.05,0.38
10.670,-1.65,-1.08,0.15,1.98
10.680,-2.27,-0.66,-0.32,2.38
10.690,-1.22,-0.06,-0.47,1.30
10.700,0.71,0.70,-0.12,1.00
10.710,0.65,0.28,-0.02,0.71
10.721,0.99,0.00,0.16,1.01
10.731,0.19,0.22,-0.02,0.30
10.741,-0.96,-1.08,-0.48,1.53
10.751,-0.65,-0.88,0.55,1.23
10.761,1.25,0.76,0.72,1.63
10.771,1.73,0.84,-0.60,2.02
10.781,1.24,1.47,-0.28,1.95
10.792,-0.35,0.24,-0.07,0.43
10.801,-1.99,-0.52,-0.21,2.06
10.811,-2.27,-0.39,0.24,2.32
10.821,-1.03,-0.42,-0.94,1.45
10.831,-0.51,-0.38,0.10,0.64
10.842,1.10,0.51,0.13,1.22
10.852,1.10,-0.04,-0.12,1.10
10.862,0.13,-0.18,0.28,0.36
10.872,-0.50,-0.75,-0.50,1.03
10.882,-0.60,-0.53,0.11,0.81
10.892,0.88,0.35,0.85,1.27
10.902,1.42,0.63,-0.14,1.56
10.912,0.76,1.25,-0.75,1.64
10.922,0.51,1.09,0.23,1.22
10.932,-1.19,-0.34,-0.23,1.26
10.942,-2.49,-1.00,-0.11,2.68
10.952,-0.83,-0.03,-0.44,0.94
10.963,-0.32,-0.68,-0.53,0.92
10.973,-0.43,-0.51,0.88,1.10
10.983,1.26,0.54,-0.28,1.40
10.993,0.34,-0.06,-0.13,0.37
11.003,0.14,0.27,-0.30,0.43
11.013,-0.05,-0.68,0.30,0.75
11.023,1.08,0.80,0.89,1.61
11.033,1.25,0.45,-0.67,1.49
11.043,0.04,0.54,-0.39,0.67
11.053,-0.56,0.67,0.46,0.99
11.063,-1.36,-0.41,-0.59,1.54
11.074,-1.67,0.23,0.10,1.69
11.084,-0.63,-0.19,-0.89,1.11
11.094,-0.03,-0.35,0.01,0.35
11.104,1.00,0.01,0.39,1.08
11.114,0.28,-1.08,0.12,1.12
11.124,-0.32,0.32,0.16,0.48
11.134,0.07,-0.02,-0.77,0.78
11.144,-0.44,-0.38,0.17,0.61
11.154,1.11,0.78,0.92,1.64
11.164,1.86,0.62,-0.49,2.02
11.174,0.53,0.62,-0.33,0.87
11.184,-0.58,0.39,0.44,0.82
11.195,-2.27,-0.15,-0.56,2.34
11.205,-2.06,0.23,-0.33,2.10
11.215,-0.64,0.29,-0.68,0.97
11.225,0.38,-0.56,0.13,0.69
11.235,1.16,-0.14,0.60,1.32
11.245,0.48,-0.88,-0.15,1.01
11.255,-0.19,-0.33,-0.15,0.41
11.265,-0.92,-0.74,-0.13,1.19
11.275,0.08,0.12,-0.05,0.16
11.285,1.34,1.38,1.11,2.22
11.295,1.52,1.01,-0.77,1.98
11.305,0.74,0.80,-0.69,1.29
11.316,-0.25,0.45,0.59,0.78
11.326,-2.60,-0.60,-0.04,2.67
11.336,-2.21,-0.29,-0.75,2.35
11.346,-0.07,-0.57,-0.44,0.72
11.356,0.58,0.37,0.31,0.75
11.366,0.62,-0.56,0.15,0.84
11.376,0.86,-0.11,0.15,0.88
11.386,-0.33,-0.09,-0.24,0.42
11.396,-1.07,-0.92,-0.55,1.52
11.406,-0.25,-0.14,0.49,0.57
11.416,1.18,0.50,0.52,1.38
11.426,2.11,0.90,-0.17,2.30
11.437,0.86,1.35,-0.46,1.67
11.447,-0.86,0.33,0.04,0.93
11.457,-2.14,0.27,-0.15,2.16
11.467,-2.19,-0.12,-0.51,2.25
11.478,-0.72,-0.63,0.46,1.06
11.489,0.59,-0.50,0.78,1.10
11.497,0.77,-0.29,-1.97,2.13
11.511,0.81,0.39,-0.62,1.09
