time,ax,ay,az,atotal
0.000,1.19,0.72,3.70,3.95
0.010,0.27,0.22,1.05,1.11
0.020,-0.79,-0.26,-0.06,0.84
0.030,-2.24,0.05,-1.80,2.87
0.040,-1.39,0.34,-2.68,3.04
0.050,-0.18,0.12,0.07,0.23
0.060,0.35,0.32,2.65,2.70
0.070,1.10,0.23,-0.43,1.21
0.081,0.14,-0.66,0.20,0.70
0.091,-0.52,-0.19,-1.27,1.39
0.101,-0.58,-1.45,-0.41,1.62
0.111,0.00,-0.28,0.80,0.85
0.121,1.42,0.43,1.47,2.09
0.131,1.67,0.82,-0.37,1.90
0.141,0.44,1.13,-1.23,1.73
0.151,-0.93,0.74,-0.19,1.20
0.161,-2.55,0.59,0.09,2.62
0.171,-2.07,0.24,-0.01,2.08
0.181,-0.30,-0.67,-0.72,1.03
0.191,0.95,-0.26,0.03,0.99
0.202,1.19,-0.57,0.35,1.36
0.212,0.15,-0.72,0.26,0.79
0.222,-0.54,-0.49,-0.22,0.76
0.232,-0.83,-0.79,-0.38,1.21
0.242,-0.29,0.23,-0.04,0.37
0.252,0.89,0.11,0.56,1.06
0.262,2.24,1.21,0.27,2.56
0.272,1.00,0.86,-0.66,1.48
0.282,-0.98,0.38,0.15,1.07
0.292,-2.27,1.11,-0.07,2.53
0.302,-2.36,-0.28,-1.06,2.60
0.313,-0.40,-0.06,-0.08,0.41
0.323,0.53,-0.31,0.12,0.63
0.333,0.99,-0.92,0.03,1.36
0.343,0.64,-0.10,0.66,0.93
0.353,-0.22,-0.82,-0.56,1.02
0.363,-0.40,-0.99,-0.39,1.13
0.373,-0.29,-0.28,0.33,0.52
0.383,0.97,0.97,1.17,1.80
0.393,1.30,1.29,-0.74,1.97
0.403,0.34,0.87,-1.02,1.38
0.413,-0.64,1.38,0.57,1.63
0.423,-2.17,0.48,-0.10,2.23
0.433,-1.20,-0.72,-0.97,1.70
0.444,-0.00,-0.08,0.22,0.23
0.454,0.11,-0.79,0.19,0.82
0.464,0.40,-0.66,-0.06,0.78
0.474,0.19,-0.61,0.18,0.66
0.484,-0.50,-0.76,-0.50,1.04
0.494,-0.27,-0.37,0.11,0.47
0.504,0.90,0.21,0.48,1.04
0.514,1.58,1.02,0.46,1.93
0.524,0.78,1.08,-0.71,1.51
0.534,-0.10,0.64,-0.35,0.73
0.544,-1.63,1.44,0.38,2.21
0.554,-2.23,0.36,-0.31,2.28
0.564,-0.98,-0.36,-1.10,1.52
0.575,0.42,-0.08,0.29,0.52
0.585,0.77,-1.12,0.11,1.36
0.595,0.39,-0.79,0.56,1.04
0.605,-0.21,-0.44,0.07,0.49
0.615,-0.40,-0.65,-0.73,1.06
0.625,-0.28,0.15,-0.09,0.33
0.635,0.98,0.65,0.72,1.38
0.645,1.59,1.16,0.17,1.97
0.655,0.46,0.74,-0.63,1.08
0.665,-0.25,0.53,0.02,0.59
0.676,-1.47,0.12,-0.05,1.47
0.686,-2.09,-0.10,-0.25,2.11
0.696,-0.74,0.08,-0.50,0.90
0.706,0.27,-0.30,-0.16,0.43
0.716,0.87,0.07,0.15,0.89
0.726,0.47,-0.45,0.21,0.68
0.736,-0.55,-0.68,-0.07,0.88
0.746,-0.57,-0.66,-0.36,0.94
0.756,0.01,-0.33,-0.19,0.38
0.766,1.02,0.38,1.07,1.53
0.776,2.02,1.01,0.05,2.26
0.786,0.50,0.77,-0.80,1.21
0.796,-0.36,1.06,0.00,1.12
0.807,-1.94,0.30,0.01,1.96
0.816,-2.50,-0.08,-0.42,2.54
0.827,-0.94,-0.55,-0.72,1.30
0.837,0.84,-0.00,0.25,0.88
0.847,1.02,-0.30,0.54,1.19
0.857,0.32,-0.64,-0.34,0.79
0.867,-0.32,-0.33,0.04,0.46
0.877,-0.63,-0.42,-0.52,0.92
0.887,-0.63,-0.91,0.35,1.16
0.897,1.17,0.93,0.63,1.62
0.907,2.19,0.94,0.22,2.40
0.917,0.76,0.74,-0.79,1.32
0.928,-0.16,1.12,0.09,1.13
0.938,-2.09,0.12,0.15,2.10
0.948,-2.56,0.16,-0.80,2.69
0.958,-1.28,-0.43,-0.42,1.41
0.968,0.58,-0.59,-0.26,0.87
0.978,1.05,-0.58,0.61,1.35
0.988,0.55,-0.51,0.38,0.84
0.998,0.01,-0.50,-0.43,0.66
1.008,-0.38,-0.08,-0.19,0.43
1.018,-0.18,0.00,-0.04,0.18
1.028,1.02,1.00,0.89,1.68
1.039,1.36,1.34,-0.40,1.95
1.048,0.56,0.44,-0.56,0.90
1.059,-0.34,0.87,0.25,0.97
1.069,-1.92,-0.17,0.21,1.94
1.079,-2.00,-0.05,-0.67,2.11
1.089,-0.73,-0.58,-0.79,1.22
1.099,0.19,-0.60,0.02,0.63
1.109,0.63,-0.28,0.61,0.92
1.119,0.65,-0.53,0.20,0.87
1.129,-0.14,-0.44,-0.43,0.63
1.139,-0.54,0.04,-0.06,0.54
1.149,0.43,0.21,-0.07,0.48
1.159,1.50,0.89,0.84,1.94
1.170,0.98,1.05,-0.45,1.50
1.180,0.29,0.68,-0.30,0.80
1.190,-0.80,0.66,0.14,1.05
1.200,-1.97,-0.47,-0.33,2.05
1.210,-1.87,-0.26,-0.32,1.92
1.220,-0.38,-0.46,-0.59,0.84
1.230,0.47,-0.73,0.18,0.88
1.240,0.68,-0.01,0.47,0.82
1.250,0.31,-0.17,0.17,0.39
1.260,-0.19,0.13,-0.59,0.63
1.270,-0.78,-0.49,-0.35,0.99
1.280,0.39,0.02,0.33,0.51
1.291,1.89,1.11,0.98,2.40
1.300,1.07,0.51,-0.56,1.31
1.311,0.06,0.50,-0.25,0.56
1.321,-0.75,0.46,0.05,0.88
1.331,-2.07,-0.32,-0.48,2.15
1.341,-1.71,0.14,0.04,1.72
1.351,-0.43,-0.46,-0.78,1.00
1.361,0.54,0.01,0.22,0.58
1.371,0.84,-0.08,0.17,0.86
1.381,0.15,-0.77,0.09,0.79
1.391,-0.46,-0.15,0.02,0.48
1.401,-0.19,-0.56,-0.53,0.80
1.412,0.53,0.55,0.63,0.99
1.422,1.42,0.74,0.63,1.72
1.432,0.85,0.55,-0.92,1.37
1.442,0.08,0.95,-0.06,0.96
1.452,-1.22,0.19,0.15,1.25
1.462,-2.50,-0.33,-0.14,2.53
1.472,-1.63,-0.21,-0.82,1.84
1.482,0.24,0.01,-0.14,0.28
1.492,0.78,-0.31,0.20,0.87
1.502,0.78,-0.63,0.09,1.00
1.512,0.12,-0.20,0.38,0.45
1.522,-0.56,-0.46,-0.50,0.88
1.533,-0.87,-0.21,-0.24,0.93
1.543,0.60,0.35,0.58,0.91
1.553,2.13,1.43,0.38,2.59
1.563,1.05,0.73,-0.54,1.39
1.573,0.10,0.60,-0.27,0.66
1.583,-1.34,0.05,0.20,1.36
1.593,-2.81,-0.54,-0.12,2.87
1.603,-1.75,-0.36,-0.76,1.94
1.613,0.32,-0.23,-0.24,0.47
1.623,0.90,0.26,0.44,1.03
1.633,0.94,-0.63,0.00,1.13
1.643,0.31,-0.04,0.11,0.33
1.654,-0.45,-0.08,-0.07,0.46
1.664,-0.76,-0.76,-0.50,1.18
1.674,0.18,0.67,0.80,1.06
1.684,1.91,1.13,0.44,2.26
1.694,1.03,0.89,-1.15,1.78
1.704,-0.02,0.51,0.38,0.63
1.714,-1.17,-0.13,-0.18,1.19
1.724,-2.19,-0.50,-0.03,2.25
1.734,-1.50,-0.23,-0.53,1.61
1.744,-0.33,-0.82,-0.56,1.04
1.755,0.91,0.75,0.65,1.34
1.764,0.82,-0.11,-0.05,0.83
1.775,0.01,-0.30,-0.15,0.33
1.785,-0.19,0.17,0.04,0.26
1.795,0.11,-0.67,-0.30,0.74
1.805,0.57,0.32,0.62,0.91
1.815,1.28,0.69,0.58,1.57
1.825,0.49,0.72,-1.08,1.39
1.835,-0.26,0.84,0.22,0.90
1.845,-1.20,-0.15,-0.16,1.22
1.855,-2.12,-0.56,-0.15,2.20
1.865,-1.00,0.28,-0.47,1.14
1.875,0.09,-0.70,-0.48,0.85
1.886,0.27,-0.27,0.51,0.64
1.896,0.65,0.00,0.37,0.75
1.906,0.18,0.07,-0.42,0.46
1.916,-0.39,-0.08,-0.09,0.41
1.926,-0.00,-0.16,-0.20,0.26
1.936,0.94,0.30,0.78,1.25
1.946,1.41,0.60,0.01,1.53
1.956,0.22,0.10,-0.51,0.56
1.966,-0.35,0.63,0.17,0.74
1.976,-1.16,0.22,0.06,1.18
1.986,-2.08,0.19,-0.46,2.14
1.996,-0.95,0.21,-0.76,1.24
2.007,0.29,0.17,0.02,0.33
2.017,0.70,-0.18,0.18,0.74
2.027,0.21,-0.89,0.47,1.03
2.037,-0.05,-0.15,-0.24,0.28
2.047,-0.11,-0.45,-0.27,0.53
2.057,0.06,0.16,0.00,0.17
2.067,0.63,-0.32,0.59,0.92
2.077,1.22,0.84,0.17,1.49
2.087,0.62,0.78,-0.33,1.05
2.097,-0.58,0.49,-0.41,0.86
2.107,-1.66,0.43,0.34,1.75
2.118,-2.36,-0.01,-0.88,2.52
2.127,-0.62,0.15,-0.26,0.69
2.138,0.78,-0.06,0.30,0.84
2.148,0.81,-0.46,-0.13,0.94
2.158,0.47,-0.49,0.39,0.78
2.168,-0.33,-0.75,-0.33,0.88
2.178,-0.97,-0.50,-0.08,1.10
2.188,-0.57,-0.71,-0.22,0.94
2.198,1.24,0.66,0.57,1.52
2.208,2.03,1.12,0.74,2.43
2.218,0.76,0.56,-1.25,1.56
2.228,-0.27,0.61,0.30,0.73
2.239,-1.71,0.87,0.09,1.92
2.249,-2.95,0.04,-0.31,2.97
2.259,-1.20,-0.37,-1.09,1.66
2.269,0.78,-0.13,0.27,0.84
2.279,1.21,-0.05,0.42,1.28
2.289,0.55,-0.96,0.12,1.11
2.299,0.04,-0.26,0.13,0.30
2.309,-0.78,-1.17,-0.68,1.56
2.319,-0.68,0.02,0.09,0.68
2.329,0.53,0.41,0.75,1.01
2.339,1.97,0.92,0.04,2.18
2.349,1.06,0.96,-0.65,1.57
2.359,-0.29,0.59,0.05,0.66
2.369,-1.79,0.85,0.18,1.99
2.380,-2.28,0.26,-0.43,2.33
2.390,-0.95,-0.19,-0.84,1.28
2.400,0.23,-0.05,0.22,0.32
2.410,1.17,-0.59,0.13,1.31
2.420,0.38,-0.87,0.44,1.04
2.430,-0.35,-0.64,0.06,0.73
2.440,-0.10,-1.17,-0.60,1.32
2.450,-0.45,-0.34,0.01,0.56
2.460,0.85,0.67,1.25,1.65
2.470,1.52,1.03,-0.38,1.88
2.480,0.55,0.91,-1.01,1.46
2.491,-0.65,1.43,0.58,1.68
2.500,-2.14,1.14,-0.16,2.43
2.511,-1.52,-0.05,-0.72,1.69
2.521,-0.35,-0.34,-0.45,0.66
2.531,0.51,-0.42,0.41,0.78
2.541,0.50,-1.04,0.27,1.19
2.551,0.17,-0.75,0.16,0.78
2.561,-0.33,-0.58,-0.28,0.72
2.571,-0.43,-0.65,-0.38,0.86
2.581,0.10,-0.17,0.20,0.28
2.591,1.30,0.79,1.01,1.83
2.601,1.35,1.05,-0.37,1.75
2.611,0.20,0.81,-0.81,1.16
2.622,-0.59,1.29,0.44,1.48
2.632,-2.08,1.22,-0.02,2.41
2.642,-1.81,-0.43,-0.92,2.07
2.652,-0.37,-0.33,-0.50,0.71
2.662,0.65,-0.58,0.35,0.94
2.672,0.75,-1.08,0.63,1.46
2.682,0.12,-0.74,0.14,0.76
2.692,-0.33,-0.62,-0.54,0.88
2.702,-0.14,0.01,-0.23,0.27
2.712,0.19,0.25,0.29,0.43
2.723,0.98,0.92,0.75,1.54
2.732,1.32,1.28,-0.39,1.88
2.743,0.07,0.47,-0.57,0.75
2.753,-1.21,0.62,0.20,1.37
2.763,-2.27,-0.34,-0.28,2.31
2.773,-1.32,0.17,-0.40,1.39
2.783,0.12,-0.16,0.26,0.33
2.793,0.72,-0.49,-0.66,1.10
2.803,0.64,-0.36,0.64,0.97
2.813,-0.03,-0.44,0.03,0.44
2.823,-0.92,-0.86,-0.34,1.31
2.833,-0.69,-0.74,-0.35,1.07
2.843,0.59,0.14,0.21,0.64
2.853,1.94,1.01,1.37,2.58
2.864,1.48,0.94,-0.87,1.96
2.874,0.05,0.73,-0.55,0.92
2.884,-0.90,0.86,0.50,1.34
2.894,-2.83,-0.09,-0.40,2.86
2.904,-2.11,-0.61,-0.69,2.30
2.914,0.32,0.06,-0.04,0.33
2.924,0.81,-0.30,0.23,0.89
2.934,0.68,-0.78,0.06,1.03
2.944,0.33,-0.11,0.33,0.48
2.954,-0.36,-0.71,-0.45,0.91
2.964,-0.80,-0.51,-0.22,0.98
2.975,0.68,0.68,0.85,1.29
2.985,1.97,1.08,0.21,2.26
2.995,0.78,0.78,-0.87,1.40
3.005,0.09,0.89,0.14,0.91
3.015,-1.29,0.55,0.16,1.41
3.025,-2.40,0.21,-0.02,2.41
3.035,-1.73,-0.68,-1.38,2.31
3.045,-0.00,-0.39,-0.02,0.39
3.055,1.08,-0.01,0.66,1.26
3.065,0.48,-1.26,-0.01,1.34
3.075,0.15,-0.00,0.42,0.45
3.085,0.07,-0.65,-0.64,0.92
3.096,-0.37,-0.26,-0.26,0.52
3.106,0.40,0.86,1.25,1.57
3.116,1.47,1.04,-0.24,1.82
3.126,0.70,1.01,-0.83,1.48
3.136,-0.15,0.95,0.26,0.99
3.146,-1.50,0.10,-0.08,1.51
3.156,-2.17,0.04,-0.04,2.17
3.166,-1.11,-0.59,-0.97,1.59
3.176,0.03,-0.79,-0.14,0.80
3.186,0.56,-0.21,0.66,0.89
3.196,0.71,-0.81,-0.08,1.08
3.207,0.21,0.00,0.20,0.29
3.217,-0.33,-0.12,-0.36,0.50
3.227,-0.28,-0.14,-0.33,0.46
3.237,0.77,1.09,1.07,1.72
3.247,1.43,0.85,-0.22,1.68
3.257,0.66,0.84,-0.68,1.27
3.267,-0.04,0.63,0.48,0.80
3.277,-1.34,-0.35,-0.37,1.44
3.287,-2.48,-0.27,0.06,2.50
3.297,-1.10,-0.13,-0.77,1.35
3.307,0.26,-0.58,-0.29,0.70
3.317,0.57,-0.12,0.54,0.80
3.327,0.66,-0.43,0.05,0.79
3.338,0.23,-0.12,0.03,0.26
3.348,-0.23,-0.00,-0.27,0.35
3.358,-0.45,-0.30,-0.15,0.56
3.368,0.67,0.54,0.68,1.10
3.378,1.56,0.83,0.13,1.78
3.388,0.41,0.42,-0.68,0.89
3.398,-0.23,0.78,0.38,0.90
3.408,-1.49,-0.32,-0.27,1.55
3.418,-2.35,0.13,-0.27,2.36
3.428,-1.07,-0.15,-0.51,1.19
3.438,0.30,-0.88,-0.53,1.07
3.448,0.84,0.11,0.81,1.17
3.459,0.65,-0.46,0.15,0.82
3.469,-0.36,-0.34,-0.14,0.51
3.479,-0.58,-0.04,-0.32,0.66
3.489,0.42,0.08,-0.17,0.46
3.499,1.10,0.70,1.04,1.67
3.509,1.51,0.69,-0.30,1.69
3.519,0.47,0.45,-0.53,0.83
3.529,-0.94,0.55,0.36,1.15
3.539,-2.20,0.02,-0.14,2.20
3.549,-2.22,-0.34,-0.81,2.39
3.559,-0.30,0.08,-0.34,0.46
3.569,0.72,-0.39,0.23,0.85
3.579,0.90,-0.48,0.25,1.05
3.590,0.50,-0.05,0.48,0.70
3.600,-0.46,-0.75,-0.62,1.07
3.610,-1.06,-0.13,-0.28,1.10
3.620,0.32,0.44,0.65,0.84
3.630,1.83,0.96,0.38,2.10
3.640,1.20,1.00,-0.45,1.63
3.650,0.26,0.59,-0.30,0.71
3.660,-0.71,0.22,0.04,0.75
3.670,-2.28,-0.59,0.30,2.38
3.680,-2.37,-0.79,-0.90,2.66
3.691,-0.22,0.16,-0.30,0.41
3.701,1.01,0.54,0.24,1.17
3.711,0.69,-0.51,-0.15,0.87
3.721,0.29,0.11,0.77,0.83
3.731,0.04,-0.05,-0.62,0.63
3.741,-0.66,-0.73,-0.27,1.02
3.751,-0.05,0.14,0.69,0.71
3.761,1.76,0.67,0.34,1.91
3.771,1.03,1.11,-0.29,1.54
3.781,-0.09,0.64,-0.34,0.73
3.791,-1.07,-0.06,-0.18,1.08
3.801,-1.96,-0.02,0.14,1.96
3.811,-1.58,-0.34,-0.45,1.68
3.822,-0.29,-0.52,-0.68,0.91
3.831,0.38,-0.05,0.68,0.78
3.842,0.95,-0.00,-0.25,0.98
3.852,0.30,-0.16,0.32,0.47
3.862,-0.31,-0.03,-0.35,0.46
3.872,-0.51,-0.59,-0.37,0.87
3.882,-0.29,-0.12,0.13,0.34
3.892,0.33,-0.59,0.28,0.73
3.902,0.18,-0.03,-0.19,0.27
3.912,0.32,0.15,0.22,0.41
3.922,-0.08,-0.00,-0.39,0.40
3.932,-1.44,0.23,-0.03,1.46
3.943,-2.00,1.00,-0.33,2.26
3.953,-1.09,-0.66,-1.47,1.94
3.963,-0.55,-0.56,0.28,0.84
3.973,0.60,-0.39,1.03,1.26
3.983,0.51,-1.44,-0.27,1.55
3.993,0.02,-0.09,-0.36,0.37
4.003,0.24,-0.29,0.21,0.43
4.013,2.06,1.34,1.54,2.90
4.023,3.00,2.35,-0.12,3.81
4.033,1.45,1.55,-1.03,2.36
4.043,-0.22,0.74,-0.32,0.84
4.053,-1.26,0.50,0.53,1.45
4.064,-1.39,-0.71,0.75,1.73
4.074,-1.41,-2.98,-1.34,3.55
4.084,1.04,-1.07,-0.04,1.50
4.094,1.64,-0.99,0.84,2.09
4.104,0.59,-1.79,-0.08,1.88
4.114,0.21,-0.84,0.57,1.04
4.124,0.84,-0.19,-0.40,0.95
4.134,-1.84,1.80,0.45,2.61
4.144,-3.74,3.78,0.41,5.34
4.154,-0.91,1.65,-3.12,3.65
4.164,0.18,2.20,-1.20,2.51
4.175,1.56,2.03,1.56,2.99
4.184,0.92,-0.30,1.03,1.41
4.195,-1.16,-0.85,0.06,1.44
4.205,-1.93,-2.21,-0.94,3.08
4.215,-0.40,-1.25,-0.95,1.62
4.225,0.42,-0.50,1.12,1.29
4.235,0.08,-1.03,0.18,1.05
4.245,0.13,-0.29,0.00,0.31
4.255,-0.22,0.53,-0.01,0.58
4.265,0.28,1.03,-0.43,1.15
4.275,1.27,1.29,0.19,1.81
4.285,0.98,0.98,0.06,1.39
4.295,0.18,0.16,-0.05,0.25
4.306,-0.96,0.23,-0.10,0.99
4.316,-2.51,-0.55,-0.12,2.57
4.326,-1.43,-0.69,-0.90,1.82
4.336,-0.39,-0.27,0.30,0.56
4.346,1.06,0.13,0.15,1.08
4.356,1.13,-0.35,0.14,1.19
4.366,-0.06,-0.07,-0.01,0.10
4.376,-0.55,-0.38,-0.42,0.79
4.386,-0.58,-0.75,-0.11,0.96
4.396,0.11,-0.02,0.59,0.60
4.406,1.55,0.61,0.68,1.81
4.417,1.25,0.74,-0.83,1.68
4.426,0.25,0.85,-0.01,0.89
4.437,-1.71,1.11,0.13,2.05
4.447,-2.68,0.45,-0.60,2.78
4.457,-0.58,0.11,-0.61,0.85
4.467,0.21,-0.34,0.02,0.40
4.477,0.70,-0.64,0.43,1.04
4.487,0.63,-0.90,0.06,1.10
4.497,-0.32,-0.52,0.10,0.62
4.507,-0.65,-0.78,-0.29,1.06
4.517,-0.34,-0.67,-0.20,0.78
4.527,0.66,0.56,0.74,1.14
4.538,1.77,1.06,0.40,2.10
4.548,0.98,1.24,-0.98,1.86
4.558,-0.22,1.12,0.20,1.15
4.568,-2.14,1.04,-0.16,2.39
4.578,-2.23,-0.20,-0.65,2.33
4.588,-0.24,-0.25,-0.41,0.54
4.598,0.63,-0.93,0.22,1.15
4.608,0.56,-1.11,0.61,1.38
4.618,0.21,-0.78,0.19,0.83
4.628,-0.61,-0.50,-0.59,0.99
4.638,-0.42,0.28,-0.22,0.55
4.648,0.06,0.21,0.10,0.24
4.659,0.88,0.58,0.49,1.16
4.668,1.66,1.43,0.40,2.22
4.679,0.41,0.64,-0.92,1.20
4.689,-0.90,0.46,0.04,1.01
4.699,-2.22,0.05,0.11,2.23
4.709,-1.81,-0.14,-0.82,1.99
4.719,0.04,-0.10,0.33,0.34
4.729,0.75,-0.40,-0.42,0.95
4.739,0.79,-0.73,0.26,1.11
4.749,0.11,-0.22,0.40,0.46
4.759,-0.94,-0.59,-0.13,1.11
4.769,-0.87,-0.25,-0.72,1.16
4.779,0.15,0.19,-0.12,0.28
4.790,1.39,1.95,0.37,2.43
4.800,1.63,4.45,-1.92,5.12
4.810,-0.15,3.00,-1.98,3.60
4.820,-0.49,5.21,-1.34,5.40
4.830,-1.07,4.05,-1.43,4.43
4.840,-0.10,2.28,-2.41,3.32
4.850,-3.91,-11.36,11.27,16.47
4.860,-1.08,0.83,-4.11,4.33
4.870,4.07,0.39,-1.53,4.37
4.880,-2.39,-7.06,8.67,11.44
4.890,0.33,0.51,-1.45,1.57
4.900,-0.05,-0.87,-3.71,3.81
4.910,-0.66,-1.20,-4.30,4.51
4.921,0.70,0.00,-0.35,0.78
4.931,1.56,-0.77,3.91,4.28
4.941,2.40,0.57,1.31,2.80
4.951,0.87,-0.38,0.62,1.13
4.961,-0.44,1.03,-0.57,1.26
4.971,-2.65,0.95,-2.10,3.52
4.981,-3.19,-0.47,-1.70,3.64
4.991,-0.24,0.95,0.83,1.28
5.001,0.50,-0.60,0.87,1.17
5.011,1.52,-0.47,0.50,1.67
5.022,1.16,-0.21,0.12,1.19
5.031,-0.59,-1.08,-1.06,1.63
5.042,-1.16,-0.68,-0.18,1.36
5.052,-0.86,-0.57,0.69,1.24
5.062,1.65,1.28,0.98,2.30
5.072,2.01,1.39,-0.29,2.46
5.082,0.66,0.72,-1.41,1.72
5.092,-0.40,1.39,0.62,1.57
5.102,-2.53,0.37,0.13,2.56
5.112,-2.56,-0.75,-0.89,2.81
5.122,-0.53,-0.57,-0.33,0.84
5.132,0.71,-0.59,0.07,0.93
5.143,1.32,-0.42,0.49,1.47
5.152,0.53,-0.49,0.54,0.90
5.163,-0.38,-0.24,-0.54,0.70
5.173,-1.03,-0.32,-0.38,1.14
5.183,-0.04,0.67,0.32,0.74
5.193,1.47,0.94,0.51,1.82
5.203,1.69,0.98,-0.60,2.04
5.213,0.68,0.76,0.24,1.05
5.223,-1.27,0.22,0.18,1.30
5.233,-2.65,-0.07,-0.52,2.70
5.243,-1.80,-0.45,-0.67,1.98
5.253,0.02,-0.33,-0.25,0.42
5.263,0.86,-0.24,0.47,1.01
5.274,1.08,-0.56,-0.00,1.22
5.284,0.46,0.07,0.60,0.76
5.294,-0.57,-0.04,-0.54,0.79
5.304,-1.29,-0.63,-0.52,1.53
5.314,-0.31,0.20,0.21,0.42
5.324,1.52,0.47,0.81,1.79
5.334,1.60,0.84,-0.00,1.81
5.344,0.52,0.58,-0.73,1.07
5.354,-0.69,0.22,0.23,0.76
5.364,-2.29,0.27,-0.03,2.31
5.374,-2.44,-0.53,-0.65,2.58
5.384,0.00,-0.20,-0.50,0.54
5.395,0.82,-0.13,0.41,0.93
5.405,0.87,-0.55,0.09,1.03
5.415,0.34,-0.27,0.30,0.53
5.425,-0.31,-0.12,-0.19,0.38
5.435,-0.57,-0.37,-0.44,0.81
5.445,0.04,0.01,0.36,0.36
5.455,1.53,0.78,0.66,1.84
5.465,1.20,0.65,-0.51,1.46
5.475,0.12,0.95,-0.11,0.96
5.485,-0.93,0.39,0.00,1.01
5.495,-2.42,0.00,-0.29,2.44
5.505,-1.75,0.02,-0.45,1.81
5.516,-0.04,-0.83,-0.59,1.03
5.526,0.93,-0.01,0.70,1.16
5.536,0.83,-0.58,0.10,1.02
5.546,-0.21,-0.65,0.10,0.69
5.556,-0.64,0.14,-0.09,0.66
5.566,-0.23,-0.30,-0.61,0.71
5.576,0.80,0.72,0.84,1.37
5.586,1.82,0.91,0.30,2.06
5.596,0.87,0.34,-0.90,1.30
5.606,-0.14,0.70,0.46,0.85
5.616,-1.87,-0.13,-0.12,1.88
5.627,-3.06,-0.34,-0.45,3.12
5.637,-0.56,0.36,-0.54,0.86
5.646,0.44,-0.48,-0.25,0.70
5.657,1.00,0.11,0.32,1.06
5.667,1.08,-0.67,0.52,1.37
5.677,-0.34,-0.25,-0.05,0.42
5.687,-1.19,-0.38,-0.25,1.28
5.697,-0.42,-0.33,-0.25,0.59
5.707,1.17,1.18,0.69,1.80
5.717,1.81,0.93,0.09,2.04
5.727,0.73,0.59,-0.84,1.26
5.737,-0.40,0.83,0.59,1.10
5.747,-2.27,-0.53,-0.28,2.35
5.758,-2.43,-0.44,-0.65,2.55
5.768,-0.82,-0.15,-0.13,0.84
5.778,0.82,-0.04,-0.28,0.87
5.788,1.12,-0.01,0.57,1.26
5.798,0.76,0.05,0.08,0.76
5.808,-0.31,-0.25,-0.36,0.54
5.818,-1.24,-0.61,-0.17,1.40
5.828,-0.62,-0.44,0.03,0.77
5.838,1.18,0.29,0.96,1.54
5.848,2.46,1.74,-0.02,3.02
5.859,1.09,0.73,-0.61,1.45
5.868,-0.71,0.31,-0.09,0.78
5.879,-2.35,-0.09,-0.08,2.35
5.889,-2.63,-0.23,-0.34,2.67
5.899,-0.49,-0.24,-0.40,0.67
5.909,0.55,-0.09,0.12,0.56
5.919,1.28,-0.03,-0.09,1.28
5.929,1.19,0.15,0.55,1.33
5.939,-0.57,-0.36,-0.28,0.73
5.949,-1.38,-1.21,-0.51,1.91
5.959,-0.56,-0.12,0.13,0.59
5.969,0.79,-0.18,0.79,1.13
5.979,1.75,1.22,0.46,2.18
5.990,1.12,0.92,-0.92,1.71
6.000,-0.18,0.82,-0.21,0.87
6.010,-1.67,0.16,0.07,1.68
6.020,-2.83,-0.80,-0.26,2.95
6.030,-0.84,0.02,-0.50,0.98
6.040,0.50,-0.34,0.23,0.64
6.050,0.79,-0.40,-0.13,0.90
6.060,0.62,-0.20,0.45,0.79
6.070,0.06,0.18,-0.22,0.29
6.080,-0.76,-0.57,-0.31,1.00
6.090,-0.32,-0.46,-0.06,0.57
6.100,1.09,0.20,0.83,1.39
6.110,1.74,0.96,0.12,1.99
6.121,0.25,0.53,-0.57,0.81
6.131,-0.55,0.78,-0.03,0.96
6.141,-2.04,0.79,-0.07,2.19
6.151,-2.16,-0.13,-0.59,2.24
6.161,-0.14,-0.19,-0.62,0.67
6.171,0.37,-0.20,0.72,0.83
6.181,1.02,-0.55,-0.02,1.15
6.191,0.43,-0.25,0.28,0.57
6.201,-0.83,-0.27,-0.16,0.88
6.211,-0.39,-0.64,-0.72,1.04
6.222,-0.06,0.26,0.52,0.59
6.231,1.26,0.54,0.60,1.49
6.242,1.82,0.57,-0.33,1.93
6.252,0.51,0.72,-0.32,0.94
6.262,-1.18,0.22,0.27,1.23
6.272,-2.89,0.04,-0.41,2.92
6.282,-1.72,0.63,-0.55,1.91
6.292,0.11,-0.00,-0.28,0.30
6.302,0.85,-0.28,0.14,0.91
6.312,1.34,-0.22,0.35,1.40
6.322,0.28,-0.73,0.15,0.80
6.332,-1.32,-0.72,-0.10,1.51
6.342,-0.93,-0.78,-0.39,1.27
6.352,0.05,-0.04,-0.12,0.14
6.363,1.56,1.34,1.23,2.40
6.373,2.00,0.90,-0.29,2.22
6.383,0.48,0.63,-0.91,1.20
6.393,-1.29,0.61,0.42,1.48
6.403,-2.98,0.01,-0.35,3.00
6.413,-1.91,-0.02,-0.46,1.96
6.423,-0.10,-0.30,-0.30,0.43
6.433,1.43,0.15,0.25,1.46
6.443,1.35,-0.31,0.18,1.40
6.453,0.06,-0.67,0.20,0.70
6.463,-0.98,-0.73,-0.39,1.28
6.474,-1.09,-0.88,-0.16,1.41
6.484,-0.34,-0.04,0.01,0.34
6.494,1.36,0.34,0.77,1.60
6.504,2.71,1.55,0.37,3.15
6.514,0.84,0.96,-0.99,1.62
6.524,-1.36,1.02,0.39,1.74
6.534,-2.59,0.80,-0.55,2.77
6.544,-2.44,-0.60,-0.71,2.61
6.554,-0.48,-0.40,0.01,0.63
6.564,1.17,-0.77,0.25,1.42
6.574,1.72,-0.32,0.34,1.78
6.584,0.49,-0.43,0.35,0.74
6.595,-0.74,-0.96,-0.59,1.34
6.605,-1.11,-0.42,-0.19,1.20
6.615,-0.60,-0.07,-0.10,0.61
6.625,0.91,0.67,1.07,1.56
6.635,2.01,1.56,0.11,2.55
6.645,0.82,0.63,-1.23,1.61
6.655,-0.56,1.57,0.59,1.77
6.665,-2.67,0.32,-0.46,2.73
6.675,-1.96,-0.73,-0.86,2.26
6.685,-0.48,-0.64,0.27,0.85
6.695,0.60,-1.06,0.23,1.24
6.705,1.08,-0.52,0.13,1.20
6.716,0.61,-0.42,0.08,0.75
6.726,-0.49,-0.55,-0.19,0.77
6.736,-0.79,-0.13,-0.27,0.84
6.746,-0.16,0.05,0.07,0.18
6.756,1.27,0.91,0.94,1.82
6.766,1.47,1.11,-0.33,1.87
6.776,0.21,0.38,-0.85,0.96
6.786,-0.86,1.42,0.79,1.84
6.796,-2.52,0.27,-0.67,2.62
6.806,-1.52,-0.66,-0.80,1.85
6.816,0.32,0.08,0.45,0.56
6.826,0.58,-0.87,-0.20,1.07
6.836,0.84,-0.65,0.44,1.15
6.847,-0.02,-0.19,0.20,0.28
6.857,-0.82,-0.74,-0.70,1.31
6.867,-0.37,0.14,-0.02,0.40
6.877,0.42,0.27,0.63,0.80
6.887,1.85,0.99,0.27,2.11
6.897,1.29,0.89,-0.60,1.68
6.907,-0.04,0.45,-0.05,0.46
6.917,-1.92,0.53,0.26,2.01
6.927,-2.45,0.39,-0.39,2.51
6.937,-0.95,-0.38,-0.85,1.34
6.947,0.11,-0.27,-0.07,0.30
6.958,1.07,-0.40,0.34,1.19
6.968,0.97,-1.02,0.35,1.45
6.978,-0.35,-0.28,0.34,0.56
6.988,-1.03,-0.75,-0.49,1.36
6.998,-0.51,-0.14,-0.61,0.81
7.008,0.67,0.74,1.00,1.41
7.018,1.98,1.07,0.26,2.27
7.028,1.02,0.71,-0.93,1.55
7.038,0.08,0.92,0.46,1.04
7.048,-2.07,0.32,-0.06,2.10
7.058,-3.08,-0.61,-0.74,3.22
7.068,-0.55,-0.13,-0.50,0.75
7.079,0.51,-0.22,0.23,0.60
7.089,1.00,-0.23,0.38,1.09
7.099,0.87,-0.55,0.15,1.04
7.109,-0.22,-0.14,-0.15,0.30
7.119,-1.11,-0.64,-0.37,1.33
7.129,-0.78,-0.66,-0.17,1.03
7.139,1.65,1.16,1.23,2.37
7.149,2.26,1.32,0.06,2.62
7.159,0.50,0.80,-1.12,1.46
7.169,-0.34,1.01,0.38,1.13
7.179,-2.39,0.03,-0.39,2.43
7.189,-2.67,-0.58,-0.37,2.76
7.200,-0.53,-0.51,-0.25,0.78
7.210,0.81,-0.57,-0.09,1.00
7.220,1.50,-0.13,0.58,1.61
7.230,0.49,-0.24,0.24,0.59
7.240,-0.81,-0.05,-0.49,0.95
7.250,-0.96,-0.00,-0.36,1.02
7.260,-0.58,-0.43,-0.11,0.73
7.270,0.98,0.68,1.13,1.64
7.280,2.13,0.65,0.00,2.23
7.290,0.87,0.36,-0.92,1.32
7.300,-0.29,0.79,0.65,1.06
7.310,-2.46,-0.21,-0.36,2.49
7.321,-2.57,0.01,-0.68,2.66
7.331,-0.49,-0.02,-0.14,0.51
7.341,0.44,-0.27,-0.25,0.57
7.351,1.13,-0.37,0.34,1.24
7.361,1.12,-0.05,0.40,1.19
7.371,-0.38,-0.35,-0.05,0.52
7.381,-1.06,-0.44,-0.63,1.31
7.391,-0.55,-0.43,0.14,0.71
7.401,0.92,0.58,0.79,1.34
7.411,1.81,1.11,0.08,2.13
7.421,0.73,0.49,-0.78,1.18
7.431,-0.26,0.57,0.17,0.65
7.442,-1.91,0.18,0.16,1.93
7.452,-2.47,-0.37,-0.63,2.57
7.462,-0.67,-0.21,-0.46,0.84
7.472,0.36,-0.16,-0.12,0.42
7.482,0.79,-0.45,0.32,0.97
7.492,0.60,-0.21,0.40,0.75
7.502,-0.18,-0.25,-0.21,0.37
7.512,-0.64,-0.23,-0.31,0.75
7.522,-0.03,-0.20,0.08,0.21
7.532,1.45,0.76,0.74,1.80
7.542,1.60,0.73,-0.36,1.80
7.552,0.21,0.21,-0.24,0.38
7.562,-0.99,0.61,0.15,1.17
7.573,-2.41,0.30,-0.04,2.43
7.583,-1.87,0.12,-0.90,2.08
7.593,-0.23,-0.43,-0.45,0.67
7.603,0.76,-0.05,0.21,0.79
7.613,1.26,-0.48,0.51,1.44
7.623,0.25,-0.35,0.37,0.57
7.633,-0.80,-0.40,-0.43,0.99
7.643,-0.61,-0.37,-0.52,0.89
7.653,0.20,0.60,0.57,0.85
7.663,1.53,0.45,0.49,1.67
7.673,1.31,0.88,-0.72,1.74
7.683,0.25,0.58,0.34,0.72
7.693,-1.48,0.16,-0.22,1.51
7.704,-2.69,0.15,-0.17,2.70
7.714,-1.40,-0.24,-0.79,1.62
7.724,0.25,-0.08,-0.21,0.33
7.734,0.77,-0.06,0.53,0.93
7.744,1.09,-0.64,-0.06,1.26
7.754,0.05,-0.44,0.28,0.53
7.764,-1.00,-0.64,-0.31,1.23
7.774,-0.87,-0.45,-0.27,1.01
7.784,1.05,0.97,0.83,1.65
7.794,2.28,1.39,0.14,2.67
7.805,0.89,0.66,-0.64,1.28
7.814,-0.11,1.02,-0.04,1.03
7.825,-2.14,-0.23,-0.05,2.15
7.835,-2.88,-0.67,-0.35,2.97
7.845,-0.75,-0.04,-0.35,0.83
7.855,0.70,-0.31,-0.18,0.79
7.865,1.17,0.12,0.43,1.25
7.875,0.68,-0.33,0.20,0.78
7.885,-0.52,-0.14,-0.35,0.64
7.895,-1.12,-0.24,-0.12,1.15
7.905,-0.61,-0.63,-0.51,1.02
7.915,0.07,-0.29,0.91,0.96
7.926,2.14,1.07,0.49,2.44
7.936,1.64,1.11,-0.55,2.06
7.946,0.03,0.62,-0.15,0.64
7.956,-1.50,-0.05,-0.25,1.52
7.966,-2.73,0.04,-0.05,2.73
7.976,-1.56,-0.18,-0.52,1.65
7.986,0.00,-0.32,-0.08,0.33
7.996,0.94,-0.01,0.05,0.95
8.006,1.45,-0.08,0.18,1.47
8.016,0.09,-0.38,0.04,0.39
8.026,-0.98,-0.92,-0.20,1.36
8.036,-0.73,-0.47,-0.12,0.88
8.046,0.51,0.19,0.41,0.69
8.057,1.54,1.08,0.74,2.02
8.067,1.23,0.94,-0.97,1.83
8.077,0.09,0.92,-0.27,0.97
8.087,-1.48,0.22,0.17,1.51
8.097,-2.55,-0.62,-0.26,2.64
8.107,-1.10,-0.07,-0.34,1.15
8.117,0.29,-0.28,-0.14,0.42
8.127,0.61,-0.43,0.02,0.75
8.137,0.50,0.04,0.46,0.68
8.147,0.02,-0.30,-0.25,0.39
8.157,-0.55,-0.06,-0.25,0.61
8.168,-0.23,-0.29,-0.12,0.39
8.178,1.15,0.12,0.68,1.34
8.188,1.87,0.79,0.17,2.04
8.198,0.26,-0.05,-0.41,0.49
8.208,-0.88,0.84,-0.09,1.22
8.218,-1.77,0.85,0.13,1.97
8.228,-2.15,0.01,-0.94,2.35
8.238,-0.34,0.09,-0.48,0.59
8.248,0.56,-0.14,0.30,0.65
8.258,0.98,-0.58,0.24,1.16
8.268,0.31,-0.54,0.51,0.81
8.278,-0.66,-0.60,-0.39,0.97
8.288,-0.48,-0.35,-0.40,0.72
8.299,-0.06,0.41,0.20,0.45
8.309,0.98,0.22,0.55,1.14
8.319,1.67,1.12,-0.00,2.01
8.329,0.56,0.49,-0.44,0.87
8.339,-0.95,0.42,-0.16,1.06
8.349,-2.44,0.33,0.33,2.48
8.359,-1.84,0.01,-0.91,2.05
8.369,-0.18,0.33,-0.16,0.41
8.379,0.59,-0.13,0.10,0.61
8.389,1.16,-0.50,-0.10,1.27
8.399,0.37,-0.39,0.54,0.76
8.409,-0.72,-1.13,-0.34,1.38
8.420,-1.10,-0.90,-0.23,1.44
8.430,-0.00,-0.01,0.04,0.04
8.440,1.47,0.81,0.78,1.85
8.450,2.12,1.55,0.29,2.64
8.460,0.53,0.69,-1.05,1.36
8.470,-0.82,0.74,-0.01,1.11
8.480,-2.73,0.29,0.15,2.75
8.490,-2.41,-0.34,-0.73,2.54
8.500,0.02,-0.11,-0.10,0.15
8.510,0.84,-0.51,-0.00,0.98
8.520,1.36,-0.29,0.24,1.41
8.530,0.50,-0.55,0.34,0.82
8.541,-0.78,-0.27,-0.27,0.87
8.551,-1.17,-0.54,-0.37,1.35
8.561,-0.56,0.03,-0.16,0.58
8.571,0.49,-0.00,0.57,0.75
8.581,1.96,0.92,0.38,2.20
8.591,1.62,0.82,-0.19,1.82
8.601,-0.02,0.51,-0.37,0.63
8.611,-2.17,0.95,0.28,2.38
8.621,-3.11,-0.15,-0.90,3.24
8.631,-1.08,-0.32,-0.71,1.33
8.641,0.30,-0.18,0.55,0.65
8.652,1.45,-0.81,-0.07,1.66
8.662,1.10,0.10,0.61,1.26
8.672,-0.05,-0.73,-0.05,0.73
8.682,-0.58,-1.08,-0.89,1.51
8.692,-1.02,-0.45,0.08,1.12
8.702,0.38,0.20,0.86,0.96
8.712,1.54,1.60,0.56,2.29
8.722,1.17,0.67,-1.38,1.93
8.732,0.12,0.91,0.07,0.92
8.742,-2.13,1.59,0.27,2.67
8.752,-2.16,-0.40,-0.52,2.26
8.762,-0.51,-0.49,-0.42,0.82
8.773,-0.05,-0.98,0.10,0.99
8.783,1.02,-0.69,0.18,1.24
8.793,0.74,-0.25,0.33,0.85
8.803,-0.45,-0.48,-0.08,0.67
8.813,-0.74,-0.28,-0.42,0.89
8.823,-0.14,-0.13,-0.12,0.23
8.833,1.22,0.69,0.65,1.54
8.843,1.52,0.97,0.53,1.88
8.853,-0.17,0.15,-1.22,1.24
8.863,-0.21,1.51,0.58,1.63
8.873,-2.24,0.70,-0.32,2.37
8.883,-2.03,-0.45,-1.01,2.31
8.894,0.32,0.29,0.25,0.50
8.904,0.76,-0.90,-0.07,1.18
8.914,0.87,-0.59,0.48,1.16
8.924,-0.09,-0.66,0.31,0.73
8.934,-0.89,-0.68,-0.78,1.36
8.944,-0.71,-0.16,-0.05,0.73
8.954,0.04,-0.04,0.19,0.20
8.964,1.78,1.06,0.87,2.25
8.974,1.64,1.16,-0.46,2.06
8.984,0.13,0.63,-0.65,0.91
8.994,-1.26,0.96,0.58,1.68
9.004,-2.65,0.15,-0.58,2.72
9.014,-1.48,-0.44,-0.65,1.68
9.025,0.05,-0.23,0.08,0.25
9.035,0.81,-0.62,-0.08,1.02
9.045,1.14,-0.34,0.55,1.31
9.055,-0.11,-0.71,0.14,0.73
9.065,-1.24,-0.89,-0.75,1.70
9.075,-0.33,0.11,0.03,0.35
9.085,0.83,0.42,0.64,1.13
9.095,1.71,1.29,0.53,2.21
9.105,0.98,1.04,-0.69,1.59
9.115,0.33,1.03,-0.56,1.21
9.125,-1.49,0.23,0.43,1.57
9.135,-2.58,-0.57,-0.26,2.66
9.146,-1.43,-0.71,-0.73,1.75
9.156,0.41,-0.36,0.01,0.54
9.166,0.89,0.08,0.41,0.98
9.176,0.72,-0.48,-0.09,0.87
9.186,-0.10,0.27,0.17,0.33
9.196,-0.77,-0.43,-0.55,1.04
9.206,-0.83,-0.31,-0.16,0.90
9.216,0.03,-0.22,0.38,0.44
9.226,1.96,0.56,0.73,2.17
9.236,1.70,1.04,-0.23,2.01
9.246,0.03,0.32,-0.58,0.66
9.257,-1.33,0.82,0.21,1.57
9.267,-2.97,0.18,-0.33,2.99
9.277,-1.78,-0.26,-0.69,1.93
9.287,0.17,-0.17,-0.22,0.32
9.297,1.27,-0.50,0.25,1.39
9.307,1.08,-0.35,0.58,1.27
9.317,0.12,-0.40,-0.02,0.42
9.327,-0.56,-0.55,-0.54,0.95
9.337,-1.18,-0.41,-0.23,1.27
9.347,0.06,0.38,0.71,0.80
9.357,1.90,1.14,0.62,2.30
9.367,1.24,0.77,-1.07,1.80
9.377,0.54,0.64,0.04,0.84
9.388,-1.38,0.37,0.38,1.48
9.398,-2.92,0.05,-0.34,2.94
9.408,-1.56,-0.42,-0.83,1.82
9.418,0.08,-0.34,-0.18,0.39
9.428,0.81,-0.17,0.35,0.89
9.438,1.25,-0.64,0.27,1.43
9.448,0.34,-0.04,0.31,0.46
9.458,-0.81,-0.40,-0.37,0.98
9.468,-0.74,-0.23,-0.55,0.95
9.478,0.56,0.58,0.86,1.18
9.488,1.71,0.95,0.24,1.97
9.499,0.43,0.21,-0.97,1.08
9.509,0.35,1.12,0.63,1.33
9.519,-1.54,0.05,-0.15,1.54
9.529,-2.68,-0.35,-0.54,2.76
9.539,-0.74,0.22,-0.51,0.93
9.549,0.17,-0.84,-0.39,0.94
9.559,0.96,0.17,0.84,1.29
9.569,0.80,-0.35,0.27,0.92
9.579,-0.28,-0.15,-0.36,0.48
9.589,-0.71,0.05,0.11,0.73
9.599,0.07,-0.15,-0.53,0.55
9.609,1.19,0.82,0.62,1.57
9.620,1.58,0.85,0.40,1.84
9.630,0.20,0.16,-0.54,0.60
9.640,-0.75,0.47,0.01,0.88
9.650,-0.80,0.48,0.25,0.97
9.660,-1.39,0.70,-0.58,1.66
9.670,-1.99,-0.44,-2.70,3.39
9.680,-1.54,-0.43,2.41,2.90
9.690,2.99,0.32,1.76,3.49
9.700,-0.56,-3.24,-3.91,5.11
9.710,-0.54,1.82,2.37,3.03
9.720,1.43,-1.28,-0.18,1.92
9.730,-0.26,-0.53,-0.76,0.96
9.741,-1.16,0.46,0.80,1.48
9.751,1.40,0.04,0.35,1.44
9.761,0.56,1.26,-0.80,1.60
9.771,0.01,0.84,0.38,0.92
9.781,-0.64,1.03,-0.41,1.28
9.791,-2.31,0.32,-0.47,2.38
9.801,-0.84,-0.24,-0.37,0.95
9.811,0.12,-0.51,0.16,0.55
9.821,0.27,-1.03,0.19,1.08
9.831,0.76,-0.25,0.25,0.84
9.841,-0.31,-1.09,-0.23,1.15
9.851,-1.07,-0.19,-0.27,1.12
9.861,-0.04,0.13,0.42,0.44
9.872,1.51,1.22,0.27,1.96
9.882,1.50,1.24,0.12,1.95
9.892,0.41,0.48,-0.98,1.17
9.902,-0.76,0.42,0.38,0.95
9.912,-2.32,-0.35,0.17,2.35
9.922,-2.03,-0.45,-0.68,2.19
9.932,-0.56,-0.20,-0.39,0.71
9.942,0.83,0.24,0.06,0.86
9.952,1.05,0.01,0.08,1.05
9.962,0.59,-0.77,0.43,1.06
9.972,-0.49,-0.08,-0.28,0.57
9.982,-0.95,-1.21,-0.47,1.61
9.993,-0.54,-0.16,0.50,0.75
10.003,1.45,0.86,0.83,1.88
10.013,1.93,1.21,-0.68,2.38
10.023,0.61,1.09,-0.25,1.27
10.033,-0.53,0.46,-0.12,0.71
10.043,-2.37,-0.07,0.12,2.37
10.053,-2.38,-0.39,-0.43,2.45
10.063,-0.65,-0.49,-0.59,1.01
10.073,0.33,0.26,0.48,0.64
10.084,1.18,-0.37,-0.31,1.27
10.094,0.83,-0.28,0.31,0.93
10.104,-0.18,-0.22,0.08,0.30
10.114,-0.49,-0.85,-0.44,1.08
10.124,0.10,0.19,0.38,0.43
10.134,0.74,0.32,0.78,1.12
10.144,0.89,0.90,-0.75,1.47
10.154,0.52,1.30,-0.16,1.41
10.164,-0.49,0.24,-0.17,0.57
10.174,-2.11,-0.40,0.13,2.15
10.184,-1.72,-0.10,-0.32,1.75
10.194,-0.28,-0.44,-0.83,0.98
10.204,0.22,-0.15,0.58,0.64
10.215,0.51,-0.54,-0.01,0.75
10.225,0.43,0.04,0.09,0.44
10.235,-0.19,0.16,0.08,0.26
10.245,-0.19,-0.53,-0.62,0.84
10.255,0.42,0.38,0.59,0.82
10.265,1.32,0.53,0.50,1.51
10.275,0.69,0.38,-0.68,1.04
10.285,-0.13,0.88,0.19,0.91
10.295,-1.09,0.31,-0.01,1.14
10.305,-2.19,0.10,-0.64,2.28
10.315,-1.32,0.25,-0.31,1.38
10.325,-0.11,-0.35,-0.38,0.53
10.336,0.55,-0.29,0.31,0.69
10.345,0.88,-0.51,0.48,1.13
10.355,0.23,-0.36,-0.13,0.45
10.366,-0.44,-0.37,-0.35,0.67
10.376,-0.12,-0.18,-0.15,0.26
10.386,0.27,0.28,0.57,0.69
10.396,1.33,0.71,0.37,1.56
10.406,1.15,0.97,-0.57,1.61
10.416,-0.39,0.41,-0.15,0.58
10.426,-1.49,0.33,0.00,1.52
10.436,-2.39,0.03,-0.34,2.41
10.446,-1.07,0.01,-0.44,1.15
10.456,0.39,0.24,-0.00,0.46
10.467,0.78,-0.38,0.03,0.87
10.477,0.76,-0.39,0.26,0.90
10.487,-0.13,-0.67,-0.09,0.69
10.497,-1.00,-0.54,0.03,1.13
10.507,-0.73,-0.53,-0.38,0.98
10.517,0.36,-0.24,-0.00,0.43
10.527,1.90,1.38,1.25,2.66
10.537,1.54,0.70,-0.61,1.80
10.547,0.13,0.67,-0.66,0.95
10.557,-1.55,0.85,0.46,1.83
10.568,-3.09,0.02,-0.66,3.16
10.577,-1.54,-0.11,-0.53,1.63
10.588,-0.04,-0.60,-0.17,0.63
10.598,1.51,0.01,0.44,1.57
10.608,1.42,-0.52,0.25,1.54
10.618,0.02,-0.74,-0.03,0.74
10.628,-1.08,-0.92,-0.45,1.49
10.638,-0.88,-0.31,0.10,0.94
10.648,-0.39,-0.03,-0.06,0.39
10.658,1.41,0.47,0.82,1.70
10.668,2.28,1.65,-0.07,2.82
10.678,0.33,0.10,-0.96,1.02
10.688,-1.22,1.27,0.52,1.84
10.698,-2.60,0.95,0.02,2.76
10.708,-1.84,-0.83,-1.38,2.44
10.719,-0.37,-0.01,0.31,0.48
10.729,0.56,-0.59,0.04,0.82
10.739,1.47,-0.31,0.15,1.51
10.749,0.64,-0.49,0.49,0.94
10.759,-0.62,-1.39,-0.65,1.65
10.769,-0.55,-0.79,-0.16,0.98
10.779,0.03,0.37,0.93,1.00
10.789,0.90,1.07,0.40,1.45
10.799,1.17,1.00,-1.21,1.96
10.809,0.44,1.35,-0.03,1.42
10.819,-1.82,1.32,0.24,2.26
10.830,-1.82,0.12,-0.46,1.88
10.840,-0.55,-0.55,-0.46,0.90
10.850,-0.17,-0.26,0.22,0.38
10.860,0.38,-1.03,0.03,1.10
10.870,0.46,-0.72,0.03,0.86
10.880,-0.01,-0.33,0.24,0.41
10.890,-0.50,-0.70,-0.35,0.93
10.900,-0.38,-0.22,-0.16,0.47
10.910,0.64,0.38,0.70,1.02
10.920,1.61,1.12,0.31,1.98
10.930,0.35,0.58,-1.09,1.28
10.940,-0.25,0.89,0.29,0.97
10.951,-1.82,1.06,0.30,2.13
10.961,-2.09,-0.06,-0.87,2.26
10.971,-0.42,-0.02,-0.60,0.74
10.981,0.47,-0.17,0.18,0.53
10.991,0.84,-0.63,0.39,1.13
11.001,0.33,-0.41,0.31,0.61
11.011,-0.54,-0.70,-0.26,0.92
11.021,-0.30,-0.49,-0.50,0.76
11.031,-0.28,-0.31,0.11,0.44
11.041,0.60,0.39,0.73,1.02
11.051,1.74,1.18,0.24,2.12
11.061,0.64,0.76,-0.89,1.34
11.071,-0.50,0.74,0.05,0.90
11.081,-1.92,0.47,0.08,1.98
11.092,-1.91,0.21,-0.82,2.09
11.102,-0.45,-0.35,0.09,0.58
11.112,0.24,-0.32,-0.33,0.52
11.122,0.64,-0.61,0.42,0.98
11.132,0.42,-0.39,0.23,0.62
11.142,-0.43,-0.22,-0.30,0.57
11.152,-0.58,-0.53,-0.56,0.96
11.162,-0.37,-0.40,0.53,0.76
11.173,0.56,0.79,0.44,1.07
11.182,2.21,0.52,0.46,2.32
11.193,1.04,0.64,-1.11,1.65
11.203,-0.92,0.20,0.09,0.95
11.213,-1.92,0.56,0.31,2.02
11.223,-2.42,-0.38,0.18,2.46
11.233,-0.58,-0.57,1.14,1.40
11.243,0.97,0.60,-0.76,1.36
11.253,0.81,-0.33,-2.26,2.42
11.263,0.36,0.28,-1.52,1.59
11.273,-0.44,-0.21,-0.13,0.50
11.283,-0.82,-0.53,1.79,2.04
11.293,-0.28,-0.74,1.42,1.63
