time,ax,ay,az,atotal
0.000,-0.18,0.09,-0.37,0.43
0.010,-0.30,-0.04,0.23,0.38
0.020,-0.18,0.02,0.19,0.26
0.031,-0.39,0.33,-0.07,0.52
0.041,-0.08,0.32,-0.11,0.35
0.051,0.07,0.04,-0.15,0.17
0.061,0.17,-0.09,-0.43,0.47
0.071,0.12,-0.46,0.76,0.90
0.081,0.21,-0.02,-1.11,1.13
0.091,-0.00,0.16,0.77,0.79
0.101,0.47,0.54,-0.45,0.84
0.111,0.15,0.20,0.09,0.27
0.121,0.35,0.02,-0.24,0.43
0.131,-0.35,-0.07,-0.02,0.36
0.141,-0.17,-0.06,0.11,0.21
0.151,-0.35,0.21,0.30,0.51
0.162,-0.35,0.40,-0.06,0.54
0.172,-0.09,0.23,-0.19,0.31
0.182,0.04,-0.11,-0.09,0.15
0.192,0.13,-0.09,-0.21,0.26
0.202,0.18,-0.24,-0.04,0.31
0.212,0.17,-0.25,-0.19,0.35
0.222,0.13,0.09,-0.09,0.18
0.232,0.30,0.42,0.20,0.55
0.242,0.41,0.44,-0.13,0.62
0.252,0.04,0.16,-0.14,0.22
0.262,-0.19,-0.04,-0.22,0.30
0.272,-0.29,-0.11,0.22,0.38
0.283,-0.21,0.20,0.22,0.36
0.293,-0.28,0.43,-0.02,0.51
0.303,-0.04,0.16,-0.19,0.25
0.313,0.05,-0.19,-0.12,0.23
0.323,0.10,-0.26,-0.09,0.30
0.333,0.08,-0.03,-0.32,0.33
0.343,0.23,-0.22,0.19,0.37
0.353,0.13,0.05,-0.38,0.41
0.363,0.25,0.26,0.38,0.52
0.373,0.49,0.48,-0.31,0.75
0.383,0.21,0.22,-0.01,0.30
0.393,-0.08,-0.08,-0.09,0.14
0.403,-0.45,-0.14,-0.11,0.48
0.414,-0.28,0.07,0.31,0.42
0.424,-0.34,0.62,-0.02,0.71
0.434,-0.10,0.28,-0.11,0.31
0.444,0.05,-0.24,-0.20,0.32
0.454,0.13,-0.27,-0.18,0.35
0.464,0.14,-0.11,-0.09,0.20
0.474,0.18,-0.07,-0.24,0.31
0.484,0.05,-0.05,0.03,0.07
0.494,0.36,0.22,0.00,0.42
0.504,0.44,0.34,0.03,0.56
0.514,0.28,0.38,-0.32,0.57
0.525,-0.11,0.06,-0.14,0.19
0.535,-0.42,-0.00,-0.07,0.42
0.545,-0.62,0.13,1.41,1.55
0.555,-0.03,0.33,-1.22,1.26
0.565,-0.34,0.15,0.13,0.39
0.575,0.48,-0.17,0.07,0.52
0.585,-0.03,-0.24,-0.33,0.41
0.595,0.14,-0.19,-0.13,0.27
0.605,0.01,0.02,0.00,0.02
0.615,0.08,-0.03,-0.13,0.16
0.625,0.34,0.19,-0.08,0.39
0.635,0.38,0.37,0.17,0.56
0.646,0.38,0.40,-0.27,0.61
0.656,-0.12,0.16,-0.08,0.21
0.666,-0.26,-0.08,0.03,0.27
0.676,-0.36,-0.07,0.33,0.50
0.686,-0.68,0.45,0.10,0.82
0.696,-0.04,0.40,-0.27,0.48
0.706,0.14,-0.21,-0.09,0.27
0.716,0.30,-0.37,-0.19,0.51
0.726,0.19,-0.29,-0.05,0.35
0.736,0.04,0.03,-0.26,0.27
0.746,0.03,0.16,-0.05,0.17
0.757,0.39,0.04,0.22,0.45
0.767,0.37,0.33,-0.28,0.57
0.777,0.25,0.31,-0.13,0.42
0.787,-0.06,0.21,0.02,0.21
0.797,-0.43,-0.06,0.08,0.44
0.807,-0.41,0.04,0.10,0.42
0.817,-0.34,0.36,0.08,0.50
0.827,0.00,0.34,-0.18,0.39
0.837,0.18,-0.11,-0.22,0.30
0.847,0.22,-0.45,-0.06,0.51
0.857,-0.03,-0.40,-0.13,0.42
0.868,0.09,-0.09,-0.31,0.34
0.878,0.15,0.29,0.12,0.35
0.888,0.27,0.19,0.04,0.34
0.898,0.47,0.15,-0.21,0.54
0.908,0.30,0.23,-0.05,0.38
0.918,-0.13,0.18,-0.22,0.31
0.928,-0.30,-0.06,0.20,0.37
0.938,-0.42,0.07,0.26,0.50
0.948,-0.41,0.47,-0.20,0.66
0.958,-0.15,0.15,0.09,0.23
0.968,0.17,-0.06,-0.45,0.49
0.979,0.16,-0.40,0.13,0.45
0.989,0.23,-0.28,-0.35,0.51
0.999,0.12,-0.15,0.00,0.19
1.009,0.13,0.24,-0.10,0.29
1.019,0.32,0.30,0.17,0.47
1.029,0.43,0.23,-0.17,0.52
1.039,0.16,0.21,-0.15,0.30
1.049,-0.11,0.07,-0.08,0.16
1.059,-0.47,0.20,0.16,0.53
1.069,-0.37,0.11,0.34,0.52
1.079,-0.27,0.35,-0.27,0.52
1.089,-0.04,0.07,-0.06,0.10
1.099,0.22,-0.16,-0.23,0.36
1.110,0.10,-0.27,-0.01,0.29
1.119,0.14,-0.27,-0.30,0.42
1.130,-0.01,-0.09,-0.03,0.10
1.140,0.33,0.30,-0.01,0.45
1.150,0.43,0.41,0.11,0.60
1.160,0.40,0.11,-0.17,0.44
1.170,0.01,0.08,-0.24,0.25
1.180,-0.26,-0.00,0.07,0.26
1.190,-0.38,0.23,0.25,0.51
1.200,-0.51,0.24,0.29,0.63
1.210,-0.14,0.37,-0.50,0.64
1.220,0.07,-0.07,0.21,0.23
1.231,0.28,-0.21,-0.32,0.47
1.241,-0.02,-0.14,-0.12,0.19
1.251,0.11,-0.28,-0.01,0.30
1.261,0.08,-0.12,-0.22,0.26
1.271,0.34,0.18,0.11,0.40
1.281,0.44,0.44,0.01,0.62
1.291,0.24,0.31,-0.27,0.47
1.301,-0.06,0.02,0.04,0.07
1.311,-0.36,-0.01,-0.13,0.38
1.321,-0.39,0.13,0.40,0.58
1.331,-0.31,0.50,-0.04,0.59
1.341,-0.07,0.16,-0.14,0.22
1.352,0.05,-0.25,-0.16,0.30
1.362,0.18,-0.31,-0.08,0.37
1.372,0.11,0.00,-0.17,0.20
1.382,0.08,-0.15,-0.13,0.22
1.392,0.04,-0.10,-0.17,0.20
1.402,0.34,0.18,0.17,0.42
1.412,0.45,0.48,-0.15,0.67
1.422,0.36,0.28,0.10,0.46
1.432,-0.03,0.03,-0.25,0.25
1.442,-0.35,-0.18,0.02,0.40
1.452,-0.36,0.14,0.34,0.51
1.463,-0.54,0.62,0.02,0.82
1.473,-0.16,0.21,-0.14,0.30
1.483,0.09,-0.19,-0.33,0.39
1.493,0.29,-0.42,0.15,0.53
1.503,0.16,-0.14,-0.29,0.36
1.513,0.08,-0.06,-0.20,0.22
1.523,0.17,-0.08,0.09,0.21
1.533,0.29,0.18,0.03,0.35
1.543,0.33,0.42,-0.09,0.54
1.553,0.32,0.41,-0.18,0.55
1.563,-0.15,-0.02,0.08,0.17
1.573,-0.33,-0.12,-0.03,0.35
1.583,-0.50,0.06,0.35,0.61
1.593,-0.34,0.58,-0.33,0.75
1.604,-0.06,0.17,0.09,0.20
1.614,0.23,-0.30,-0.34,0.51
1.624,0.14,-0.42,-0.12,0.46
1.634,0.21,-0.11,-0.22,0.32
1.644,-0.11,0.07,0.04,0.13
1.654,0.13,0.00,-0.15,0.20
1.664,0.41,0.21,0.13,0.47
1.674,0.47,0.41,-0.06,0.63
1.684,0.21,0.38,-0.22,0.48
1.695,-0.12,-0.11,0.00,0.16
1.705,-0.55,-0.06,0.26,0.61
1.715,-0.45,0.25,0.08,0.52
1.725,-0.23,0.50,-0.20,0.59
1.735,0.01,0.09,0.02,0.09
1.745,0.29,-0.36,-0.25,0.53
1.755,0.14,-0.40,-0.09,0.43
1.765,0.13,-0.13,-0.12,0.22
1.775,0.01,0.21,-0.15,0.26
1.785,0.23,0.13,0.09,0.28
1.795,0.31,0.19,0.06,0.37
1.805,0.40,0.20,-0.19,0.49
1.815,0.15,0.30,-0.15,0.36
1.826,-0.18,0.03,0.07,0.20
1.836,-0.38,-0.23,0.26,0.52
1.846,-0.49,0.27,-0.14,0.58
1.856,-0.17,0.43,0.05,0.46
1.866,0.03,0.13,-0.13,0.19
1.876,0.19,-0.34,-0.19,0.43
1.886,0.10,-0.40,-0.14,0.44
1.896,0.12,-0.18,-0.16,0.27
1.906,0.02,0.07,-0.07,0.10
1.916,0.24,0.33,-0.12,0.42
1.926,0.43,0.23,0.36,0.60
1.936,0.42,0.22,-0.45,0.65
1.947,0.11,0.17,-0.02,0.20
1.957,-0.17,0.08,-0.01,0.19
1.967,-0.44,-0.18,0.31,0.56
1.977,-0.37,0.15,-0.03,0.40
1.987,-0.34,0.47,-0.08,0.58
1.997,0.11,0.18,-0.11,0.24
2.007,0.11,-0.28,-0.06,0.31
2.017,0.15,-0.40,-0.23,0.48
2.027,0.12,-0.21,-0.15,0.28
2.038,0.19,0.16,0.03,0.25
2.048,0.27,0.36,-0.02,0.45
2.058,0.37,0.22,0.05,0.43
2.068,0.24,0.19,-0.22,0.38
2.078,0.01,0.03,-0.06,0.07
2.088,-0.17,0.02,-0.11,0.20
2.098,-0.37,-0.03,0.34,0.50
2.108,-0.28,0.19,0.05,0.34
2.118,-0.28,0.39,-0.19,0.52
2.128,0.10,0.02,-0.03,0.11
2.138,0.09,-0.19,-0.22,0.31
2.148,0.10,-0.34,-0.03,0.36
2.158,0.07,-0.14,-0.31,0.35
2.168,0.12,0.07,0.13,0.18
2.179,0.39,0.40,0.03,0.56
2.189,0.38,0.33,-0.08,0.51
2.199,0.30,0.09,-0.08,0.32
2.209,-0.05,-0.02,-0.22,0.23
2.219,-0.19,-0.19,-0.02,0.26
2.229,-0.31,0.13,0.29,0.45
2.239,-0.35,0.27,0.14,0.46
2.249,-0.27,0.44,-0.34,0.62
2.259,0.08,0.01,0.04,0.09
2.269,0.11,-0.18,-0.19,0.29
2.280,0.16,-0.31,-0.13,0.37
2.289,0.21,-0.36,-0.12,0.43
2.300,0.03,0.09,-0.14,0.17
2.310,0.46,0.34,0.15,0.59
2.320,0.38,0.58,-0.08,0.69
2.330,0.31,0.20,-0.15,0.40
2.340,-0.14,-0.13,-0.10,0.22
2.350,-0.32,-0.19,-0.07,0.38
2.360,-0.34,0.17,0.32,0.50
2.370,-0.29,0.45,0.09,0.55
2.380,-0.08,0.30,-0.11,0.33
2.390,0.07,-0.09,-0.28,0.30
2.400,0.16,-0.33,0.01,0.37
2.411,0.06,-0.16,-0.27,0.32
2.420,0.09,-0.21,0.00,0.23
2.431,0.11,-0.04,-0.19,0.23
2.441,0.27,0.27,0.11,0.39
2.451,0.45,0.39,0.02,0.60
2.461,0.35,0.30,-0.30,0.56
2.471,0.03,-0.11,0.11,0.16
2.481,-0.31,-0.17,-0.17,0.39
2.491,-0.44,-0.04,0.35,0.56
2.501,-0.35,0.58,-0.02,0.68
2.511,-0.13,0.45,0.04,0.47
2.521,0.14,-0.16,-0.21,0.30
2.531,0.10,-0.34,-0.18,0.40
2.542,0.18,-0.20,0.01,0.28
2.552,0.08,-0.07,-0.24,0.26
2.562,0.04,-0.12,-0.10,0.17
2.572,0.33,0.19,0.05,0.38
2.582,0.40,0.36,0.16,0.56
2.592,0.36,0.37,-0.28,0.59
2.602,-0.11,0.12,-0.15,0.22
2.612,-0.24,-0.15,0.05,0.29
2.622,-0.44,-0.05,0.31,0.54
2.632,-0.35,0.40,0.01,0.53
2.643,-0.09,0.50,-0.13,0.53
2.652,0.13,-0.13,-0.04,0.19
2.663,0.06,-0.40,-0.24,0.46
2.673,0.11,-0.29,-0.15,0.34
2.683,0.10,-0.06,-0.12,0.17
2.693,0.09,0.09,-0.14,0.19
2.703,0.33,0.08,-0.10,0.36
2.713,0.33,0.25,0.27,0.50
2.723,0.53,0.29,-0.36,0.70
2.733,-0.03,0.25,-0.08,0.26
2.743,-0.19,-0.15,0.07,0.26
2.753,-0.47,-0.06,0.05,0.47
2.764,-0.44,0.30,0.23,0.58
2.774,-0.25,0.59,-0.18,0.66
2.784,0.07,0.07,-0.13,0.16
2.794,0.23,-0.43,-0.14,0.50
2.804,0.15,-0.33,-0.23,0.43
2.814,0.11,-0.09,-0.09,0.17
2.824,0.11,0.10,-0.13,0.20
2.834,0.34,-0.00,0.06,0.34
2.844,0.36,0.20,-0.02,0.41
2.854,0.37,0.27,-0.13,0.48
2.864,-0.01,0.30,-0.19,0.35
2.874,-0.31,0.02,0.05,0.32
2.884,-0.36,-0.10,0.34,0.50
2.895,-0.42,0.34,-0.16,0.56
2.905,-0.16,0.39,0.01,0.42
2.915,0.13,0.04,-0.17,0.22
2.925,0.17,-0.48,-0.10,0.52
2.935,0.12,-0.34,-0.26,0.44
2.945,0.10,-0.14,0.00,0.17
2.955,0.10,0.14,-0.11,0.21
2.965,0.29,0.19,0.04,0.35
2.975,0.44,0.10,0.06,0.45
2.985,0.26,0.29,-0.24,0.46
2.996,-0.01,0.17,-0.13,0.21
3.006,-0.20,-0.04,0.04,0.21
3.016,-0.34,-0.05,0.33,0.48
3.026,-0.55,0.28,-0.04,0.62
3.036,-0.12,0.37,-0.18,0.43
3.046,0.11,0.06,-0.02,0.13
3.056,0.12,-0.28,-0.28,0.41
3.066,0.15,-0.50,-0.03,0.52
3.076,0.19,-0.17,-0.23,0.35
3.086,0.20,0.18,-0.06,0.28
3.096,0.37,0.30,0.20,0.52
3.107,0.38,0.20,-0.12,0.44
3.116,0.10,0.22,-0.22,0.32
3.127,-0.04,0.04,-0.01,0.06
3.137,-0.30,0.05,0.04,0.31
3.147,-0.35,0.07,0.31,0.47
3.157,-0.31,0.33,-0.15,0.48
3.167,-0.11,0.27,-0.08,0.31
3.177,0.09,-0.05,-0.16,0.19
3.187,0.18,-0.30,-0.12,0.37
3.197,0.20,-0.43,-0.14,0.50
3.207,-0.06,-0.11,-0.20,0.24
3.217,0.25,0.15,0.06,0.30
3.228,0.39,0.47,0.06,0.61
3.237,0.45,0.22,-0.13,0.52
3.248,0.19,0.06,-0.14,0.24
3.258,-0.13,-0.10,-0.07,0.18
3.268,-0.35,-0.00,0.13,0.37
3.278,-0.35,0.29,0.36,0.58
3.288,-0.41,0.47,-0.20,0.65
3.298,-0.17,0.20,-0.15,0.30
3.308,0.24,-0.20,-0.04,0.32
3.318,0.13,-0.22,-0.21,0.33
3.328,0.21,-0.33,-0.19,0.44
3.338,0.12,-0.16,-0.06,0.21
3.349,0.25,0.16,0.02,0.30
3.358,0.41,0.35,0.03,0.53
3.369,0.42,0.22,-0.02,0.47
3.379,0.07,0.11,-0.28,0.30
3.389,-0.33,-0.08,0.01,0.34
3.399,-0.34,0.01,0.34,0.48
3.409,-0.40,0.52,0.02,0.66
3.419,-0.15,0.34,-0.06,0.38
3.429,-0.02,-0.11,-0.26,0.28
3.439,0.16,-0.45,-0.11,0.49
3.449,0.10,-0.08,-0.14,0.19
3.459,0.11,-0.06,-0.10,0.16
3.469,0.10,-0.16,-0.11,0.22
3.480,0.24,0.12,0.01,0.27
3.490,0.46,0.37,0.12,0.60
3.500,0.42,0.36,-0.19,0.59
3.510,0.12,-0.01,-0.05,0.13
3.520,-0.26,-0.14,-0.03,0.30
3.530,-0.48,-0.02,0.29,0.56
3.540,-0.47,0.50,0.03,0.69
3.550,-0.19,0.41,-0.10,0.46
3.560,0.01,-0.07,-0.20,0.21
3.570,0.27,-0.44,-0.08,0.52
3.581,0.13,-0.19,-0.16,0.28
3.591,0.10,-0.06,-0.14,0.18
3.600,0.19,-0.15,0.03,0.24
3.611,0.26,0.14,-0.07,0.30
3.621,0.45,0.27,0.03,0.52
3.631,0.39,0.35,-0.06,0.53
3.641,-0.02,0.09,-0.23,0.25
3.651,-0.40,-0.05,0.15,0.43
3.661,-0.49,0.02,0.34,0.59
3.671,-0.42,0.50,-0.22,0.69
3.681,-0.02,0.33,-0.01,0.33
3.691,0.25,-0.27,-0.07,0.38
3.701,0.11,-0.41,-0.27,0.51
3.712,0.05,-0.22,-0.13,0.26
3.722,0.04,0.08,-0.08,0.12
3.732,0.07,0.04,-0.05,0.10
3.742,0.34,0.10,-0.00,0.35
3.752,0.51,0.22,0.08,0.56
3.762,0.39,0.33,-0.22,0.55
3.772,-0.06,0.04,-0.05,0.09
3.782,-0.42,-0.18,0.27,0.53
3.792,-0.56,0.21,0.05,0.61
3.802,-0.38,0.47,-0.07,0.61
3.812,-0.00,0.26,-0.09,0.27
3.822,0.24,-0.28,-0.17,0.41
3.833,0.21,-0.38,-0.29,0.52
3.842,0.14,-0.21,0.04,0.26
3.853,0.01,0.08,-0.13,0.15
3.863,0.17,0.23,-0.41,0.50
3.873,0.39,-0.01,0.69,0.79
3.883,0.36,0.36,-0.46,0.69
3.893,0.33,0.14,0.00,0.36
3.903,-0.10,0.21,-0.36,0.42
3.913,-0.43,-0.28,0.60,0.79
3.923,-0.30,0.07,-0.13,0.34
3.933,-0.49,0.37,-0.07,0.62
3.943,0.15,0.35,-0.05,0.38
3.954,0.11,-0.17,-0.07,0.21
3.964,0.11,-0.42,-0.35,0.56
3.974,0.12,-0.32,-0.05,0.35
3.984,0.05,0.02,-0.09,0.10
3.994,0.14,0.25,-0.17,0.33
4.004,0.45,0.19,0.23,0.54
4.014,0.37,0.23,-0.17,0.47
4.024,0.25,0.17,-0.20,0.36
4.034,-0.09,0.06,-0.04,0.12
4.044,-0.41,-0.21,0.39,0.61
4.054,-0.32,0.07,-0.06,0.33
4.064,-0.47,0.44,0.00,0.64
4.075,-0.02,0.34,-0.09,0.35
4.085,0.06,-0.07,-0.18,0.21
4.095,0.21,-0.45,-0.08,0.51
4.105,0.19,-0.28,-0.33,0.47
4.115,0.08,0.03,0.18,0.19
4.125,0.37,0.27,-0.13,0.48
4.135,0.33,0.24,0.09,0.42
4.145,0.32,0.12,-0.07,0.35
4.155,0.11,0.13,-0.27,0.32
4.165,-0.13,0.01,0.02,0.13
4.175,-0.31,-0.06,0.25,0.40
4.186,-0.31,0.03,0.15,0.35
4.196,-0.33,0.41,-0.19,0.56
4.206,0.02,0.20,0.03,0.20
4.216,0.08,-0.12,-0.22,0.27
4.226,0.11,-0.31,-0.20,0.39
4.236,0.20,-0.32,-0.08,0.38
4.246,0.08,-0.06,-0.09,0.14
4.256,0.22,0.38,-0.05,0.44
4.266,0.41,0.44,0.08,0.60
4.276,0.47,0.11,-0.22,0.53
4.286,0.02,0.07,-0.09,0.12
4.297,-0.17,-0.14,-0.09,0.23
4.307,-0.32,-0.07,0.19,0.38
4.317,-0.30,0.20,0.26,0.44
4.327,-0.32,0.35,-0.11,0.48
4.337,-0.04,0.13,-0.25,0.28
4.347,0.03,-0.12,0.01,0.12
4.357,0.18,-0.19,-0.21,0.34
4.367,0.22,-0.44,-0.06,0.49
4.377,0.11,-0.19,-0.15,0.27
4.387,0.29,0.26,0.03,0.39
4.397,0.41,0.51,0.09,0.66
4.407,0.32,0.38,-0.19,0.54
4.418,0.06,0.02,-0.08,0.10
4.428,-0.27,-0.10,-0.11,0.30
4.438,-0.36,-0.04,0.23,0.43
4.448,-0.26,0.31,0.14,0.43
4.458,-0.12,0.26,0.02,0.28
4.468,-0.07,0.02,-0.30,0.31
4.478,0.05,-0.24,-0.07,0.25
4.488,0.11,-0.21,0.03,0.24
4.498,0.01,-0.14,-0.29,0.32
4.508,0.19,-0.23,0.00,0.30
4.518,0.27,0.07,-0.01,0.28
4.528,0.40,0.44,0.03,0.59
4.538,0.48,0.40,-0.09,0.63
4.549,0.17,0.04,-0.13,0.22
4.559,-0.26,-0.12,-0.11,0.31
4.569,-0.30,-0.15,0.27,0.43
4.579,-0.43,0.31,0.16,0.55
4.589,-0.28,0.49,-0.09,0.58
4.599,0.04,0.07,-0.11,0.14
4.609,-0.00,-0.29,-0.12,0.31
4.619,0.16,-0.23,-0.25,0.38
4.629,0.18,-0.09,-0.01,0.20
4.639,0.10,-0.20,-0.14,0.26
4.649,0.18,-0.09,-0.11,0.24
4.660,0.42,0.29,0.20,0.55
4.670,0.51,0.40,-0.19,0.67
4.680,0.11,0.17,-0.06,0.21
4.690,-0.29,0.12,-0.15,0.35
4.700,-0.55,0.12,0.24,0.62
4.710,-0.25,0.10,0.24,0.36
4.720,-0.17,0.32,-0.21,0.42
4.730,0.15,-0.10,-0.07,0.19
4.740,0.08,-0.33,-0.17,0.38
4.750,0.04,-0.26,-0.12,0.29
4.760,-0.01,-0.05,-0.14,0.15
4.770,0.10,0.07,-0.13,0.18
4.781,0.29,-0.12,0.05,0.32
4.791,0.41,0.18,-0.05,0.45
4.801,0.52,0.30,-0.08,0.60
4.811,0.28,0.23,-0.22,0.43
4.821,-0.35,0.10,0.11,0.38
4.831,-0.48,0.07,0.08,0.49
4.841,-0.40,0.16,0.13,0.45
4.851,-0.19,0.36,0.03,0.41
4.861,0.04,0.15,-0.22,0.27
4.871,0.14,-0.46,-0.07,0.48
4.882,0.09,-0.38,-0.23,0.46
4.891,0.11,-0.11,-0.07,0.17
4.902,0.09,0.13,-0.15,0.22
4.912,0.32,0.07,0.00,0.33
4.922,0.42,0.10,0.14,0.46
4.932,0.40,0.26,-0.22,0.53
4.942,0.13,0.25,-0.14,0.31
4.952,-0.26,0.19,0.05,0.32
4.962,-0.45,-0.06,0.32,0.55
4.972,-0.42,0.14,-0.09,0.46
4.982,-0.18,0.38,0.00,0.42
4.992,0.09,0.16,-0.10,0.21
5.002,0.18,-0.48,-0.14,0.53
5.013,0.10,-0.45,-0.26,0.53
5.023,0.04,-0.15,-0.05,0.16
5.033,0.06,0.10,-0.10,0.15
5.043,0.21,0.18,-0.02,0.28
5.053,0.57,0.05,0.14,0.59
5.063,0.34,0.25,-0.25,0.49
5.073,0.19,0.21,-0.03,0.29
5.083,-0.17,0.07,-0.09,0.21
5.093,-0.44,-0.04,0.30,0.53
5.103,-0.41,0.21,0.13,0.47
5.114,-0.34,0.34,-0.10,0.49
5.123,0.02,0.13,-0.24,0.28
5.134,0.17,-0.22,-0.00,0.28
5.144,0.25,-0.48,-0.17,0.57
5.154,-0.04,-0.24,-0.28,0.37
5.164,0.17,-0.01,0.05,0.18
5.174,0.39,0.33,-0.04,0.51
5.184,0.48,0.23,0.08,0.53
5.194,0.37,0.17,-0.27,0.48
5.204,0.00,0.10,-0.06,0.12
5.214,-0.33,0.03,0.09,0.34
5.224,-0.39,0.12,0.16,0.44
5.234,-0.35,0.18,0.19,0.43
5.245,-0.20,0.35,-0.29,0.50
5.255,0.14,-0.08,0.05,0.17
5.265,0.16,-0.20,-0.47,0.54
5.275,0.04,-0.38,0.42,0.57
5.285,0.13,-0.18,-0.72,0.76
5.295,0.03,-0.03,0.28,0.28
5.305,0.52,0.38,-0.07,0.65
5.315,0.48,0.36,0.01,0.60
5.325,0.33,0.06,-0.16,0.38
5.335,-0.10,-0.04,-0.18,0.20
5.345,-0.34,-0.05,0.10,0.35
5.355,-0.32,0.24,0.27,0.48
5.366,-0.47,0.35,0.07,0.59
5.376,-0.10,0.19,-0.40,0.46
5.386,0.16,-0.25,0.15,0.33
5.396,0.18,-0.19,-0.37,0.45
5.406,0.05,-0.24,0.00,0.24
5.416,0.15,-0.27,-0.15,0.35
5.426,0.12,-0.04,-0.06,0.14
5.436,0.44,0.43,-0.00,0.61
5.446,0.57,0.30,0.14,0.66
5.456,0.17,0.15,-0.43,0.48
5.466,-0.26,-0.07,0.01,0.27
5.476,-0.37,-0.02,0.22,0.43
5.487,-0.42,0.38,0.29,0.63
5.497,-0.24,0.39,-0.04,0.46
5.507,0.10,-0.02,-0.27,0.29
5.517,0.12,-0.41,-0.02,0.43
5.527,0.09,-0.20,-0.31,0.38
5.537,-0.04,-0.01,-0.03,0.05
5.547,0.18,-0.20,-0.16,0.31
5.557,0.10,-0.07,-0.00,0.12
5.567,0.47,0.31,0.07,0.57
5.577,0.51,0.40,-0.12,0.66
5.587,0.21,0.15,-0.09,0.28
5.597,-0.15,-0.11,-0.08,0.20
5.608,-0.49,-0.19,0.26,0.59
5.618,-0.56,0.41,0.02,0.69
5.628,-0.20,0.44,0.03,0.48
5.638,0.06,-0.04,-0.15,0.17
5.648,0.10,-0.28,-0.28,0.41
5.658,0.23,-0.27,-0.05,0.36
5.668,0.06,-0.09,-0.11,0.15
5.678,0.01,-0.19,-0.17,0.25
5.688,0.28,0.03,-0.09,0.29
5.698,0.46,0.27,0.24,0.58
5.708,0.43,0.37,-0.25,0.62
5.718,0.06,0.23,-0.04,0.24
5.729,-0.31,-0.05,0.01,0.32
5.739,-0.47,-0.03,0.26,0.54
5.749,-0.35,0.34,0.10,0.50
5.759,-0.18,0.48,-0.23,0.56
5.769,0.26,-0.24,0.03,0.36
5.779,0.10,-0.40,-0.24,0.47
5.789,0.07,-0.28,-0.13,0.32
5.799,0.04,-0.06,-0.11,0.13
5.809,0.10,0.07,-0.09,0.15
5.819,0.22,0.10,0.04,0.24
5.830,0.48,0.22,0.08,0.53
5.839,0.41,0.32,-0.21,0.56
5.850,0.09,0.25,-0.11,0.29
5.860,-0.34,-0.19,0.24,0.45
5.870,-0.49,-0.04,0.10,0.50
5.880,-0.43,0.38,-0.04,0.57
5.890,-0.11,0.40,-0.10,0.43
5.900,0.13,-0.13,-0.06,0.19
5.910,0.19,-0.43,-0.33,0.57
5.920,0.13,-0.29,-0.11,0.33
5.930,0.15,-0.06,0.03,0.17
5.940,0.06,0.12,-0.26,0.30
5.951,0.33,0.05,0.14,0.36
5.960,0.45,0.24,-0.03,0.51
5.971,0.33,0.27,-0.12,0.45
5.981,0.08,0.22,-0.13,0.27
5.991,-0.36,-0.17,0.14,0.43
6.001,-0.40,-0.06,0.23,0.46
6.011,-0.38,0.33,-0.07,0.50
6.021,-0.14,0.40,-0.09,0.43
6.031,0.20,-0.01,-0.04,0.21
6.041,0.27,-0.56,-0.16,0.64
6.051,-0.00,-0.34,-0.29,0.45
6.062,0.06,-0.01,0.05,0.08
6.072,0.09,0.22,-0.19,0.30
6.082,0.40,0.06,0.11,0.41
6.092,0.48,0.23,0.02,0.53
6.102,0.26,0.28,-0.27,0.47
6.112,0.04,0.12,-0.11,0.17
6.122,-0.35,-0.08,0.22,0.42
6.132,-0.35,-0.13,0.23,0.43
6.142,-0.41,0.26,-0.13,0.50
6.152,-0.14,0.34,-0.05,0.37
6.162,0.06,0.06,-0.14,0.16
6.172,0.26,-0.41,-0.16,0.51
6.182,0.07,-0.34,-0.19,0.39
6.192,0.18,-0.11,-0.12,0.24
6.203,0.16,0.15,0.15,0.26
6.213,0.43,0.41,-0.42,0.72
6.223,0.41,0.15,0.43,0.61
6.233,0.18,0.22,-0.50,0.57
6.243,-0.17,-0.07,0.01,0.19
6.253,-0.22,-0.08,0.11,0.26
6.263,-0.31,0.01,0.32,0.44
6.273,-0.35,0.37,-0.11,0.52
6.283,-0.04,0.29,-0.13,0.32
6.293,0.02,-0.06,-0.02,0.07
6.304,0.04,-0.28,-0.24,0.37
6.314,0.16,-0.46,-0.11,0.50
6.324,0.17,-0.15,-0.12,0.26
6.334,0.29,0.23,0.08,0.37
6.344,0.43,0.48,-0.11,0.65
6.354,0.36,0.23,0.07,0.43
6.364,0.17,0.08,-0.32,0.37
6.374,-0.25,-0.09,0.04,0.27
6.384,-0.23,-0.17,0.04,0.29
6.394,-0.25,0.12,0.29,0.40
6.404,-0.23,0.36,-0.06,0.43
6.414,-0.17,0.24,-0.13,0.32
6.425,0.03,-0.05,-0.13,0.14
6.435,0.03,-0.22,-0.05,0.22
6.445,0.13,-0.36,-0.19,0.43
6.455,0.17,-0.32,-0.07,0.37
6.465,0.26,0.10,-0.03,0.28
6.475,0.51,0.47,-0.05,0.69
6.485,0.37,0.44,0.11,0.58
6.495,0.21,0.05,-0.29,0.36
6.505,-0.30,-0.11,-0.09,0.33
6.515,-0.24,-0.06,0.22,0.33
6.525,-0.29,0.23,0.22,0.43
6.535,-0.18,0.31,-0.09,0.37
6.546,-0.11,0.12,-0.12,0.20
6.556,0.12,-0.25,-0.20,0.35
6.566,-0.00,-0.20,-0.03,0.20
6.576,0.13,-0.08,-0.21,0.26
6.586,0.18,-0.27,-0.01,0.32
6.596,0.06,-0.00,-0.08,0.10
6.606,0.56,0.39,-0.21,0.72
6.616,0.43,0.38,0.29,0.64
6.626,0.16,0.16,-0.42,0.48
6.636,-0.15,-0.24,0.00,0.29
6.646,-0.29,-0.14,0.15,0.36
6.656,-0.34,0.22,0.19,0.45
6.667,-0.32,0.54,-0.01,0.63
6.677,-0.00,0.13,-0.08,0.15
6.687,-0.07,-0.27,-0.21,0.35
6.697,0.11,-0.34,-0.07,0.37
6.707,0.07,-0.01,-0.25,0.26
6.717,0.19,-0.15,0.07,0.26
6.727,0.24,-0.22,-0.12,0.35
6.737,0.43,0.23,-0.20,0.53
6.747,0.52,0.36,0.32,0.71
6.757,0.24,0.28,-0.39,0.54
6.767,-0.34,0.09,0.05,0.36
6.777,-0.42,0.02,0.03,0.42
6.787,-0.43,0.10,0.32,0.54
6.798,-0.08,0.40,-0.08,0.42
6.808,0.02,0.11,-0.12,0.17
6.818,0.09,-0.35,-0.17,0.40
6.828,0.01,-0.36,-0.09,0.37
6.838,-0.01,-0.22,-0.11,0.24
6.848,0.02,0.07,-0.27,0.28
6.858,0.28,-0.08,0.17,0.34
6.868,0.41,0.13,-0.14,0.45
6.878,0.45,0.25,0.11,0.53
6.888,0.43,0.28,-0.34,0.61
6.899,-0.14,0.12,0.09,0.21
6.909,-0.43,-0.09,0.18,0.48
6.919,-0.47,0.04,0.11,0.48
6.929,-0.28,0.41,0.03,0.50
6.939,-0.06,0.40,-0.11,0.42
6.949,0.18,-0.37,-0.11,0.42
6.959,0.09,-0.46,-0.27,0.54
6.969,0.10,-0.23,0.03,0.25
6.979,0.13,0.04,-0.17,0.22
6.989,0.24,0.08,-0.05,0.26
6.999,0.45,0.14,-0.02,0.47
7.009,0.39,0.19,0.08,0.44
7.020,0.30,0.16,-0.34,0.48
7.030,-0.15,0.12,-0.06,0.21
7.040,-0.35,-0.05,0.24,0.42
7.050,-0.47,0.07,0.21,0.52
7.060,-0.27,0.36,-0.18,0.48
7.070,-0.01,0.31,-0.12,0.33
7.080,0.16,-0.19,-0.02,0.25
7.090,0.14,-0.50,-0.27,0.58
7.100,0.03,-0.39,-0.13,0.42
7.110,0.10,0.02,-0.16,0.19
7.120,0.19,0.25,0.03,0.31
7.131,0.54,0.03,0.09,0.55
7.140,0.37,0.20,-0.18,0.46
7.151,0.25,0.18,-0.13,0.33
7.161,-0.09,0.09,-0.08,0.15
7.171,-0.36,-0.13,0.14,0.41
7.181,-0.35,0.07,0.21,0.41
7.191,-0.39,0.40,-0.09,0.56
7.201,-0.04,0.18,-0.16,0.25
7.211,0.06,-0.04,-0.16,0.17
7.221,0.22,-0.40,-0.08,0.46
7.231,0.08,-0.29,-0.25,0.39
7.241,0.03,-0.19,-0.06,0.20
7.252,0.31,0.09,-0.08,0.33
7.262,0.54,0.31,0.11,0.64
7.272,0.36,0.22,-0.06,0.43
7.282,0.14,0.15,-0.31,0.37
7.292,-0.23,-0.04,0.10,0.26
7.302,-0.35,0.06,0.22,0.42
7.312,-0.30,0.09,0.20,0.37
7.322,-0.29,0.44,-0.30,0.61
7.332,0.00,0.13,-0.03,0.14
7.342,0.16,-0.31,-0.06,0.35
7.352,0.04,-0.30,-0.30,0.43
7.363,0.11,-0.30,-0.03,0.32
7.372,0.14,-0.08,-0.11,0.19
7.383,0.30,0.29,-0.03,0.42
7.393,0.53,0.43,0.07,0.68
7.403,0.40,0.09,-0.16,0.44
7.413,-0.03,-0.01,-0.18,0.18
7.423,-0.19,-0.16,0.04,0.25
7.433,-0.26,0.05,0.28,0.39
7.443,-0.37,0.39,0.12,0.55
7.453,-0.26,0.37,-0.19,0.49
7.463,0.04,-0.12,-0.06,0.14
7.473,0.05,-0.25,-0.21,0.33
7.484,0.22,-0.18,-0.11,0.30
7.494,0.17,-0.36,0.01,0.39
7.504,0.05,-0.12,-0.34,0.37
7.514,0.38,0.19,0.25,0.50
7.524,0.54,0.45,-0.04,0.71
7.534,0.32,0.23,-0.22,0.45
7.544,-0.04,0.03,-0.10,0.11
7.554,-0.33,-0.12,0.07,0.36
7.564,-0.34,0.15,0.31,0.49
7.574,-0.33,0.46,0.02,0.56
7.584,-0.04,0.09,-0.27,0.29
7.594,0.01,-0.28,-0.04,0.28
7.604,0.17,-0.33,-0.21,0.43
7.615,0.00,-0.06,-0.11,0.13
7.625,0.10,-0.14,-0.15,0.23
7.635,0.08,-0.08,-0.10,0.15
7.645,0.42,0.18,0.09,0.46
7.655,0.47,0.42,-0.01,0.63
7.665,0.39,0.15,-0.24,0.49
7.675,-0.08,-0.03,-0.04,0.09
7.685,-0.29,-0.18,0.13,0.36
7.695,-0.42,0.18,0.24,0.51
7.705,-0.45,0.56,-0.16,0.74
7.715,0.02,0.03,0.01,0.04
7.725,0.05,-0.30,-0.26,0.40
7.736,0.13,-0.31,-0.15,0.37
7.746,0.10,-0.03,-0.00,0.11
7.756,0.09,-0.11,-0.13,0.20
7.766,0.16,-0.04,-0.18,0.24
7.776,0.46,0.12,0.28,0.55
7.786,0.44,0.38,-0.22,0.62
7.796,0.23,0.30,-0.09,0.39
7.806,-0.14,-0.06,0.00,0.16
7.816,-0.39,-0.12,0.14,0.43
7.826,-0.45,0.19,0.16,0.51
7.836,-0.19,0.49,-0.19,0.55
7.847,0.11,-0.06,0.02,0.13
7.857,0.11,-0.37,-0.34,0.51
7.867,0.05,-0.29,-0.07,0.30
7.877,-0.04,-0.15,-0.02,0.16
7.887,0.06,0.03,-0.32,0.33
7.897,0.28,0.05,0.14,0.32
7.907,0.48,0.16,0.07,0.51
7.917,0.40,0.28,-0.17,0.52
7.927,0.18,0.31,-0.14,0.38
7.937,-0.14,-0.07,0.05,0.16
7.947,-0.42,-0.14,0.23,0.50
7.957,-0.36,0.24,0.03,0.43
7.968,-0.29,0.51,-0.22,0.63
7.977,0.10,-0.01,0.01,0.10
7.988,0.11,-0.40,-0.23,0.48
7.998,0.09,-0.39,-0.20,0.45
8.008,0.14,-0.10,-0.07,0.18
8.018,0.06,0.13,-0.08,0.17
8.028,0.33,-0.01,-0.06,0.34
8.038,0.44,0.19,0.10,0.49
8.048,0.36,0.26,-0.12,0.46
8.058,0.06,0.24,-0.19,0.31
8.069,-0.19,-0.02,0.09,0.21
8.078,-0.24,-0.21,0.30,0.44
8.089,-0.46,0.22,-0.02,0.51
8.099,-0.14,0.38,-0.25,0.48
8.109,-0.02,0.13,0.11,0.17
8.119,0.21,-0.37,-0.15,0.45
8.129,0.03,-0.45,-0.26,0.52
8.139,0.16,-0.21,-0.08,0.27
8.149,0.04,0.14,-0.14,0.21
8.159,0.36,0.20,-0.02,0.41
8.169,0.55,0.14,0.30,0.64
8.179,0.33,0.27,-0.46,0.63
8.189,0.03,0.11,-0.01,0.12
8.199,-0.19,-0.08,0.10,0.23
8.210,-0.31,-0.25,0.27,0.48
8.220,-0.48,0.29,-0.25,0.62
8.230,-0.15,0.43,0.07,0.46
8.240,0.05,0.15,-0.08,0.18
8.250,0.08,-0.36,-0.27,0.46
8.260,0.18,-0.48,-0.11,0.53
8.270,0.13,-0.23,-0.11,0.28
8.280,0.22,0.17,-0.14,0.31
8.290,0.30,0.39,0.05,0.49
8.300,0.57,0.24,0.01,0.61
8.310,0.19,0.13,-0.17,0.28
8.320,-0.03,-0.02,-0.19,0.19
8.331,-0.27,-0.04,0.02,0.27
8.341,-0.24,-0.07,0.35,0.43
8.351,-0.29,0.17,-0.02,0.33
8.361,-0.21,0.39,-0.17,0.47
8.371,0.08,0.08,-0.05,0.12
8.381,0.04,-0.27,-0.13,0.31
8.391,0.12,-0.42,-0.18,0.47
8.401,0.06,-0.25,-0.10,0.27
8.411,0.20,0.05,0.03,0.21
8.421,0.44,0.43,-0.11,0.62
8.432,0.49,0.31,0.07,0.58
8.441,0.31,0.11,-0.28,0.43
8.452,-0.09,-0.07,0.03,0.11
8.462,-0.26,-0.16,-0.06,0.31
8.472,-0.38,0.13,0.27,0.49
8.482,-0.20,0.20,0.14,0.32
8.492,-0.19,0.33,-0.29,0.48
8.502,0.06,-0.07,0.01,0.10
8.512,0.06,-0.20,-0.19,0.29
8.522,0.12,-0.34,-0.16,0.39
8.532,0.15,-0.37,-0.07,0.41
8.542,0.07,-0.08,-0.02,0.11
8.552,0.53,0.39,-0.26,0.71
8.563,0.45,0.44,0.22,0.67
8.573,0.22,0.27,-0.31,0.46
8.583,-0.03,-0.16,0.02,0.16
8.593,-0.28,-0.14,-0.06,0.32
8.603,-0.36,0.16,0.32,0.51
8.613,-0.21,0.36,-0.07,0.42
8.623,-0.03,0.13,-0.07,0.15
8.633,-0.07,-0.19,-0.21,0.29
8.643,0.09,-0.29,-0.15,0.34
8.653,0.03,-0.11,-0.10,0.16
8.663,0.13,-0.17,-0.10,0.23
8.674,0.07,-0.20,0.12,0.24
8.684,0.52,0.18,-0.41,0.69
8.694,0.62,0.53,-0.31,0.87
8.704,0.18,0.24,0.54,0.62
8.714,-0.06,0.02,-0.43,0.44
8.724,-0.41,-0.32,-0.02,0.52
8.734,-0.26,-0.03,0.45,0.52
8.744,-0.28,0.56,-0.10,0.64
8.754,-0.08,0.24,-0.03,0.26
8.764,0.03,-0.16,-0.21,0.27
8.774,0.04,-0.29,-0.12,0.31
8.784,0.08,-0.18,-0.09,0.22
8.794,0.15,-0.18,-0.12,0.26
8.805,0.16,-0.28,0.14,0.35
8.815,0.36,0.10,-0.51,0.63
8.825,0.65,0.44,-0.20,0.81
8.835,0.25,0.22,0.45,0.56
8.845,-0.02,0.16,-0.42,0.45
8.855,-0.65,0.12,0.18,0.68
8.865,-0.32,-0.08,0.28,0.43
8.875,-0.30,0.33,-0.06,0.45
8.885,0.08,0.30,-0.01,0.31
8.895,0.17,-0.38,-0.13,0.44
8.905,-0.08,-0.33,-0.26,0.43
8.916,0.08,-0.19,0.01,0.21
8.926,0.04,-0.06,-0.04,0.09
8.936,0.12,-0.17,-0.02,0.21
8.946,0.43,0.07,-0.41,0.60
8.956,0.58,0.40,-0.09,0.71
8.966,0.28,0.14,0.27,0.41
8.976,0.00,0.17,-0.37,0.41
8.986,-0.42,0.06,0.21,0.48
8.996,-0.41,-0.05,0.20,0.46
9.006,-0.36,0.13,0.08,0.39
9.016,-0.08,0.49,-0.30,0.58
9.027,0.17,-0.11,0.15,0.25
9.037,0.06,-0.42,-0.36,0.56
9.047,-0.02,-0.29,-0.16,0.33
9.057,0.21,-0.12,0.10,0.26
9.067,0.14,-0.03,-0.00,0.15
9.077,0.53,0.16,-0.65,0.85
9.087,0.55,0.30,0.15,0.64
9.097,0.22,0.12,0.26,0.36
9.107,-0.04,0.11,-0.43,0.45
9.117,-0.45,0.09,0.19,0.50
9.127,-0.28,-0.00,0.32,0.42
9.137,-0.39,0.15,0.01,0.42
9.147,-0.08,0.30,-0.22,0.38
9.157,0.17,0.01,-0.09,0.20
9.168,0.16,-0.54,0.06,0.56
9.178,-0.05,-0.35,-0.46,0.58
9.188,0.08,-0.16,0.11,0.21
9.198,0.10,0.11,0.07,0.16
9.208,0.60,0.21,-0.64,0.90
9.218,0.62,0.10,0.23,0.67
9.228,0.21,0.26,-0.17,0.38
9.238,-0.19,0.20,0.10,0.29
9.248,-0.21,-0.09,-0.23,0.32
9.258,-0.39,-0.08,0.44,0.60
9.269,-0.37,0.33,-0.13,0.52
9.279,-0.09,0.21,-0.06,0.24
9.289,0.01,-0.01,-0.14,0.14
9.299,0.08,-0.31,-0.10,0.33
9.309,0.16,-0.35,-0.21,0.44
9.319,0.13,-0.24,0.01,0.27
9.329,0.21,-0.00,-0.01,0.21
9.339,0.51,0.38,-0.40,0.75
9.349,0.45,0.09,0.51,0.69
9.359,0.13,0.24,-0.62,0.68
9.369,-0.12,-0.06,0.26,0.30
9.379,-0.32,0.11,-0.02,0.34
9.390,-0.32,-0.00,0.35,0.47
9.400,-0.29,0.33,-0.14,0.46
9.410,-0.09,0.18,-0.13,0.24
9.420,0.08,-0.14,-0.20,0.26
9.430,0.10,-0.32,-0.05,0.34
9.440,0.11,-0.41,-0.19,0.46
9.450,0.06,-0.20,-0.15,0.26
9.460,0.31,0.07,0.11,0.34
9.470,0.56,0.47,-0.43,0.85
9.480,0.35,0.13,0.50,0.63
9.490,0.22,0.17,-0.65,0.71
9.501,-0.36,-0.06,0.21,0.42
9.511,-0.23,0.00,0.22,0.32
9.521,-0.39,0.21,0.21,0.48
9.531,-0.20,0.29,-0.21,0.41
9.541,-0.04,0.02,-0.06,0.08
9.551,0.03,-0.30,-0.08,0.31
9.561,0.10,-0.14,-0.29,0.33
9.571,0.19,-0.22,0.03,0.29
9.581,0.11,-0.26,-0.13,0.31
9.591,0.27,-0.01,-0.03,0.27
9.601,0.70,0.45,-0.22,0.86
9.611,0.28,0.19,0.28,0.44
9.622,0.01,0.13,-0.37,0.39
9.632,-0.44,0.00,-0.01,0.44
9.642,-0.29,0.07,0.33,0.44
9.652,-0.28,0.33,0.10,0.45
9.662,-0.10,0.14,-0.13,0.22
9.672,0.10,-0.25,-0.20,0.33
9.682,0.12,-0.34,-0.12,0.38
9.692,-0.01,-0.07,-0.12,0.13
9.702,0.06,-0.15,-0.13,0.21
9.712,0.10,-0.21,0.04,0.24
9.722,0.60,0.36,-0.33,0.77
9.732,0.92,0.47,0.44,1.12
9.742,0.25,0.52,-0.39,0.70
9.753,0.05,0.20,0.03,0.20
9.763,-0.34,-0.13,0.00,0.36
9.773,-0.25,0.13,0.59,0.65
9.783,0.02,1.06,0.25,1.09
9.793,0.00,0.57,-0.07,0.58
9.803,-0.34,-0.03,-0.25,0.42
9.813,-0.28,-0.08,-0.08,0.30
9.823,-0.29,0.04,0.31,0.43
9.833,-0.28,0.09,0.03,0.30
9.843,0.02,-0.15,-0.27,0.31
9.853,0.29,-0.40,-0.35,0.61
9.863,0.44,-0.48,0.03,0.65
9.874,0.24,-0.18,-0.25,0.39
9.884,-0.16,0.02,0.06,0.17
9.894,-0.09,-0.09,-0.19,0.23
9.904,-0.17,-0.17,-0.20,0.32
9.914,0.14,-0.08,-0.12,0.20
9.924,0.02,-0.04,-0.07,0.08
9.934,0.14,-0.22,-0.23,0.35
9.944,0.02,-0.25,-0.13,0.28
9.954,0.01,-0.05,-0.14,0.15
9.964,0.03,0.05,-0.09,0.11
9.974,0.23,-0.12,-0.20,0.32
9.985,0.34,0.02,-0.03,0.34
9.995,0.36,0.22,0.20,0.47
10.005,0.36,0.39,-0.32,0.62
10.015,0.12,0.20,-0.11,0.26
10.025,-0.33,-0.08,0.29,0.45
10.035,-0.51,-0.06,0.08,0.52
10.045,-0.43,0.32,-0.00,0.54
10.055,-0.13,0.36,-0.09,0.40
10.065,0.23,-0.13,-0.06,0.27
10.075,0.20,-0.43,-0.23,0.53
10.085,0.20,-0.29,-0.23,0.42
10.096,0.04,0.01,-0.02,0.05
10.106,0.07,0.02,-0.14,0.16
10.116,0.31,-0.04,-0.00,0.31
10.126,0.45,0.23,0.08,0.51
10.136,0.38,0.31,-0.14,0.51
10.146,0.02,0.18,-0.12,0.21
10.156,-0.28,-0.21,0.04,0.35
10.166,-0.39,-0.11,0.28,0.50
10.176,-0.40,0.31,-0.08,0.51
10.186,-0.21,0.40,0.00,0.45
10.196,0.11,-0.00,-0.17,0.20
10.207,0.23,-0.42,-0.28,0.56
10.217,0.07,-0.39,-0.10,0.41
10.227,0.23,-0.15,-0.05,0.28
10.237,-0.03,0.10,-0.23,0.25
10.247,0.55,-0.03,-0.02,0.55
10.257,0.38,0.25,0.21,0.50
10.267,0.32,0.31,-0.43,0.62
10.277,-0.02,0.22,0.07,0.24
10.287,-0.21,-0.14,0.02,0.25
10.297,-0.35,-0.22,0.24,0.48
10.307,-0.50,0.30,-0.07,0.59
10.317,-0.09,0.39,-0.08,0.41
10.327,0.14,0.09,0.04,0.17
10.337,0.23,-0.48,-0.28,0.60
10.348,0.12,-0.44,-0.20,0.50
10.358,0.27,-0.21,0.03,0.35
10.368,0.04,0.19,-0.00,0.19
10.378,0.43,0.24,-0.34,0.60
10.388,0.37,0.26,0.36,0.58
10.398,0.33,0.28,-0.41,0.60
10.408,-0.21,0.05,0.04,0.22
10.418,-0.25,-0.15,-0.04,0.29
10.428,-0.32,-0.23,0.35,0.53
10.438,-0.32,0.29,-0.13,0.45
10.449,-0.04,0.41,-0.04,0.42
10.459,0.07,0.12,-0.06,0.15
10.469,0.11,-0.38,-0.24,0.47
10.479,0.09,-0.43,-0.18,0.48
10.489,0.19,-0.27,-0.03,0.33
10.499,0.13,0.16,-0.05,0.22
10.509,0.53,0.40,-0.15,0.68
10.519,0.49,0.15,0.31,0.60
10.529,0.15,0.23,-0.57,0.63
10.539,-0.22,-0.06,0.18,0.29
10.549,-0.20,-0.07,-0.05,0.22
10.559,-0.39,-0.08,0.29,0.50
10.569,-0.31,0.30,-0.08,0.44
10.580,-0.11,0.31,-0.08,0.34
10.590,0.09,-0.00,-0.07,0.12
10.600,0.09,-0.18,-0.33,0.39
10.610,0.24,-0.47,0.05,0.53
10.620,0.13,-0.33,-0.21,0.41
10.630,0.18,0.01,-0.07,0.19
10.640,0.45,0.44,-0.05,0.63
10.650,0.39,0.35,0.17,0.55
10.660,0.12,0.08,-0.38,0.40
10.670,-0.11,-0.05,-0.06,0.14
10.680,-0.24,-0.00,0.07,0.25
10.691,-0.25,0.05,0.33,0.41
10.701,-0.29,0.22,-0.08,0.37
10.711,-0.17,0.22,-0.17,0.32
10.721,0.13,-0.10,-0.02,0.17
10.731,0.06,-0.18,-0.26,0.32
10.741,0.12,-0.26,-0.05,0.29
10.751,0.21,-0.31,-0.14,0.40
10.761,0.20,-0.12,-0.07,0.25
10.772,0.43,0.35,-0.07,0.56
10.781,0.46,0.42,0.11,0.63
10.791,0.21,0.11,-0.31,0.39
10.801,-0.21,-0.10,0.06,0.24
10.812,-0.27,-0.16,-0.02,0.31
10.822,-0.30,0.18,0.34,0.49
10.832,-0.31,0.41,0.00,0.51
10.842,-0.16,0.16,-0.22,0.32
10.852,0.05,-0.17,-0.01,0.18
10.862,0.23,-0.28,-0.18,0.41
10.872,0.11,-0.12,-0.21,0.27
10.882,0.25,-0.32,-0.01,0.41
10.892,0.12,-0.14,-0.20,0.27
10.902,0.39,0.09,0.03,0.40
10.913,0.42,0.45,0.08,0.62
10.922,0.25,0.30,-0.29,0.49
10.933,-0.17,0.07,-0.05,0.19
10.943,-0.30,-0.12,0.13,0.35
10.953,-0.38,0.04,0.22,0.45
10.963,-0.30,0.51,-0.11,0.60
10.973,0.05,0.07,0.16,0.18
10.983,0.02,-0.26,-0.46,0.52
10.993,0.17,-0.36,-0.09,0.41
11.003,0.20,-0.18,0.02,0.27
11.013,0.06,-0.08,-0.30,0.31
11.023,0.18,-0.23,0.05,0.29
11.034,0.38,0.07,-0.10,0.40
11.043,0.47,0.29,0.08,0.56
11.054,0.29,0.29,-0.30,0.51
11.064,-0.13,0.16,0.05,0.21
11.074,-0.42,0.04,0.01,0.43
11.084,-0.43,-0.02,0.27,0.51
11.094,-0.27,0.33,-0.14,0.45
11.104,-0.08,0.33,-0.09,0.35
11.114,0.23,-0.24,-0.11,0.35
11.124,0.10,-0.42,-0.27,0.51
11.134,0.18,-0.25,-0.08,0.32
11.144,0.12,-0.01,-0.10,0.16
11.155,0.24,-0.10,-0.16,0.31
11.165,0.42,0.03,0.12,0.44
11.175,0.42,0.26,-0.13,0.51
11.185,0.20,0.22,-0.11,0.32
11.195,-0.15,0.24,-0.07,0.29
11.205,-0.35,-0.06,0.04,0.36
11.215,-0.39,0.01,0.29,0.49
11.225,-0.32,0.34,-0.05,0.47
11.235,-0.05,0.27,-0.19,0.33
11.245,0.16,-0.22,-0.07,0.28
11.255,0.16,-0.42,-0.25,0.51
11.265,0.13,-0.31,-0.12,0.36
11.275,0.11,-0.07,-0.06,0.15
11.286,0.20,0.09,-0.25,0.33
11.296,0.44,0.04,0.27,0.52
11.306,0.50,0.24,-0.24,0.61
11.316,0.20,0.27,-0.18,0.39
11.326,-0.08,0.09,0.08,0.15
11.336,-0.31,-0.16,-0.00,0.35
11.346,-0.52,0.05,0.30,0.60
11.356,-0.32,0.36,-0.12,0.50
11.366,-0.03,0.32,-0.18,0.37
11.376,0.17,-0.12,0.05,0.22
11.386,0.19,-0.49,-0.36,0.64
11.396,0.16,-0.40,-0.13,0.45
11.407,0.19,-0.17,-0.03,0.26
11.417,0.20,0.16,-0.21,0.33
11.427,0.50,0.21,0.21,0.58
11.437,0.31,0.25,-0.15,0.42
11.447,0.12,0.10,-0.24,0.29
11.457,-0.20,0.14,0.01,0.25
11.467,-0.37,-0.01,0.17,0.41
11.477,-0.29,0.06,0.26,0.40
11.487,-0.32,0.44,-0.20,0.58
11.497,0.03,0.11,-0.09,0.15
11.508,0.10,-0.16,-0.18,0.26
11.518,0.25,-0.53,-0.06,0.59
11.528,-0.00,-0.29,-0.23,0.38
11.538,0.21,-0.08,-0.14,0.27
11.548,0.26,0.25,0.09,0.37
11.558,0.51,0.27,0.12,0.59
11.568,0.33,0.17,-0.27,0.46
11.578,0.09,0.01,-0.07,0.11
11.588,-0.29,0.02,-0.08,0.30
11.598,-0.29,-0.03,0.37,0.47
11.608,-0.42,0.29,0.04,0.51
11.618,-0.31,0.34,-0.20,0.50
11.628,1.93,-0.37,1.71,2.61
11.639,-1.35,-0.16,-0.41,1.42
11.649,2.00,-0.56,0.30,2.10
11.659,-0.45,0.55,0.40,0.82
11.669,1.13,0.26,-0.71,1.36
11.679,0.29,-0.00,-0.94,0.98
11.689,-0.40,0.21,1.24,1.32
11.699,-0.50,-0.85,-1.10,1.47
11.709,-1.27,-1.34,-1.59,2.44
11.719,-0.48,-0.66,0.19,0.83
11.729,-0.53,1.17,0.91,1.57
11.739,-0.14,1.17,-0.56,1.31
11.749,0.40,0.39,-0.33,0.65
11.760,0.37,-0.34,0.48,0.69
11.770,0.25,-0.06,-0.90,0.94
11.780,0.22,0.14,0.20,0.33
11.790,-0.02,-0.03,-0.10,0.11
11.800,-0.10,-0.23,-0.21,0.33
11.810,0.23,-0.06,0.24,0.34
11.820,0.49,0.26,-0.14,0.57
11.830,0.29,0.11,-0.22,0.38
11.840,-0.06,-0.06,-0.03,0.09
11.850,-0.34,-0.11,0.38,0.52
11.860,-0.57,0.58,-0.06,0.82
11.870,-0.36,0.61,-0.21,0.74
11.881,0.12,-0.09,0.05,0.16
11.891,0.15,-0.55,-0.28,0.63
11.901,0.12,-0.47,-0.17,0.51
11.911,0.17,-0.15,-0.14,0.27
11.921,0.22,-0.14,-0.06,0.27
11.931,0.47,0.13,-0.06,0.49
11.941,0.39,0.36,0.12,0.54
11.951,0.40,0.43,-0.31,0.66
11.961,-0.12,0.18,0.05,0.22
11.971,-0.42,-0.19,0.02,0.46
11.982,-0.45,-0.22,0.26,0.57
11.992,-0.41,0.35,-0.05,0.54
12.002,-0.01,0.37,-0.15,0.40
12.012,0.28,-0.25,0.02,0.38
12.022,0.23,-0.37,-0.46,0.63
12.032,0.27,-0.24,0.10,0.37
12.042,0.00,0.10,-0.14,0.17
12.052,-0.08,-0.04,-0.17,0.19
12.062,0.13,0.06,0.11,0.18
12.072,0.47,0.20,-0.01,0.51
12.082,0.43,0.28,-0.10,0.52
12.092,0.12,0.16,-0.19,0.28
12.103,-0.26,-0.26,0.18,0.41
12.113,-0.38,-0.04,0.21,0.44
12.123,-0.58,0.51,-0.13,0.79
12.133,-0.14,0.37,-0.08,0.41
12.143,-0.01,-0.18,-0.07,0.20
12.153,0.29,-0.53,-0.38,0.72
12.163,0.25,-0.36,0.00,0.44
12.173,0.24,-0.01,-0.13,0.28
12.183,0.19,0.07,-0.23,0.31
12.193,0.38,0.10,0.21,0.44
12.203,0.39,0.19,-0.08,0.44
12.214,0.26,0.29,-0.32,0.51
12.224,-0.11,0.17,0.09,0.22
12.234,-0.34,-0.23,0.08,0.42
12.244,-0.50,0.01,0.17,0.53
12.254,-0.32,0.35,-0.08,0.48
12.264,-0.01,0.25,-0.14,0.29
12.274,0.31,-0.12,-0.14,0.36
12.284,0.26,-0.50,-0.13,0.57
12.294,0.07,-0.39,-0.13,0.41
12.304,0.06,-0.04,-0.17,0.19
12.314,-0.04,0.16,-0.08,0.18
12.324,0.40,0.12,0.18,0.45
12.335,0.52,0.31,-0.14,0.62
12.344,0.35,0.19,-0.11,0.42
12.355,0.07,-0.02,-0.11,0.13
12.365,-0.33,-0.24,0.11,0.42
12.375,-0.39,-0.11,0.24,0.47
12.385,-0.60,0.43,-0.13,0.75
12.395,-0.12,0.43,-0.08,0.45
12.405,0.06,0.02,-0.08,0.10
12.415,0.25,-0.52,-0.22,0.62
12.425,0.17,-0.46,-0.20,0.53
12.435,0.33,-0.19,-0.02,0.38
12.445,0.39,0.25,-0.07,0.47
12.456,0.33,0.29,0.13,0.46
12.466,0.37,0.09,-0.13,0.40
12.476,0.07,0.04,-0.26,0.27
12.486,-0.24,-0.01,-0.01,0.24
12.496,-0.34,0.01,0.09,0.35
12.506,-0.35,0.01,0.32,0.48
12.516,-0.29,0.41,-0.27,0.57
12.526,0.04,0.25,-0.03,0.25
12.536,0.12,-0.10,-0.13,0.20
12.546,0.10,-0.36,-0.24,0.45
12.556,0.15,-0.43,-0.08,0.46
12.566,0.13,-0.17,-0.19,0.29
12.577,0.29,0.20,0.02,0.35
12.587,0.41,0.40,0.12,0.58
12.597,0.42,0.09,-0.18,0.47
12.607,0.17,0.05,-0.20,0.26
12.617,-0.18,-0.05,-0.05,0.19
12.627,-0.30,0.01,0.17,0.34
12.637,-0.48,0.23,0.25,0.59
12.647,-0.35,0.28,-0.14,0.47
12.657,-0.05,0.09,-0.16,0.19
12.667,0.13,-0.13,0.05,0.19
12.677,0.16,-0.19,-0.34,0.42
12.687,0.24,-0.41,-0.01,0.47
12.697,0.21,-0.27,-0.26,0.42
12.708,0.24,0.04,0.03,0.24
12.718,0.40,0.31,0.15,0.53
12.728,0.36,0.34,-0.25,0.56
12.738,0.12,-0.02,-0.01,0.12
12.748,-0.23,-0.09,-0.12,0.28
12.758,-0.42,-0.01,0.12,0.44
12.768,-0.23,0.39,0.20,0.49
12.778,-0.26,0.41,0.06,0.48
12.788,-0.05,0.02,-0.27,0.27
12.798,0.11,-0.33,-0.04,0.35
12.808,0.17,-0.30,-0.16,0.39
12.819,0.03,-0.18,-0.16,0.24
12.829,0.20,-0.28,-0.06,0.35
12.839,0.32,-0.04,-0.09,0.34
12.849,0.41,0.26,0.12,0.50
12.859,0.46,0.42,-0.20,0.65
12.869,0.16,0.09,-0.11,0.22
12.879,-0.16,-0.07,-0.03,0.17
12.889,-0.44,-0.08,0.03,0.45
12.899,-0.36,0.25,0.33,0.54
12.909,-0.30,0.55,-0.21,0.66
12.919,0.07,-0.00,0.06,0.09
12.930,0.05,-0.33,-0.33,0.47
12.940,0.18,-0.36,-0.08,0.41
12.950,0.16,-0.10,-0.12,0.23
12.960,0.13,-0.23,-0.05,0.27
12.970,0.24,-0.12,-0.18,0.32
12.980,0.40,0.13,0.17,0.45
12.990,0.50,0.33,-0.16,0.62
13.000,0.25,0.13,-0.05,0.29
13.010,-0.30,0.05,-0.17,0.34
13.020,-0.51,0.13,0.14,0.54
13.030,-0.39,0.22,0.30,0.54
13.040,-0.26,0.44,-0.25,0.57
13.051,0.06,0.06,0.01,0.08
13.060,0.23,-0.43,-0.18,0.52
13.071,0.03,-0.49,-0.19,0.52
13.081,0.13,-0.21,-0.18,0.31
13.091,0.04,0.02,0.00,0.04
13.101,0.30,-0.11,-0.14,0.35
13.111,0.38,0.12,0.01,0.40
13.121,0.51,0.21,0.01,0.55
13.131,0.30,0.16,-0.23,0.41
13.141,-0.23,0.10,0.02,0.26
13.151,-0.46,0.15,0.11,0.50
13.162,-0.54,0.26,0.18,0.63
13.172,-0.23,0.31,-0.03,0.39
13.182,0.01,0.12,-0.21,0.24
13.192,0.28,-0.38,-0.10,0.48
13.202,0.14,-0.50,-0.18,0.55
13.212,0.12,-0.30,-0.13,0.35
13.222,0.09,0.09,-0.13,0.18
13.232,0.27,0.09,-0.02,0.28
13.242,0.42,0.06,0.11,0.44
13.252,0.41,0.20,-0.21,0.51
13.262,0.24,0.16,-0.12,0.31
13.272,-0.22,0.10,0.02,0.24
13.283,-0.43,-0.06,0.11,0.44
13.293,-0.43,0.10,0.16,0.47
13.303,-0.30,0.37,-0.04,0.48
13.313,0.07,0.15,-0.13,0.21
13.323,0.14,-0.32,-0.14,0.37
13.333,0.17,-0.46,-0.26,0.55
13.343,0.15,-0.35,0.07,0.39
13.353,0.05,-0.01,-0.30,0.31
13.363,0.20,0.20,0.04,0.28
13.373,0.63,0.08,0.15,0.65
13.383,0.38,0.12,-0.20,0.45
13.394,0.25,0.07,-0.17,0.31
13.404,-0.24,0.12,-0.03,0.26
13.413,-0.46,-0.02,0.21,0.50
13.424,-0.40,0.15,0.18,0.46
13.434,-0.37,0.33,-0.14,0.52
13.444,0.12,0.11,-0.24,0.29
13.454,0.16,-0.17,0.11,0.26
13.464,0.21,-0.51,-0.33,0.64
13.474,-0.02,-0.23,-0.17,0.29
13.484,0.30,-0.14,0.03,0.34
13.494,0.24,0.22,-0.14,0.35
13.504,0.51,0.18,0.16,0.56
13.515,0.38,0.13,-0.27,0.48
13.525,0.12,0.03,-0.10,0.16
13.535,-0.27,0.12,-0.01,0.30
13.545,-0.47,0.10,0.34,0.59
13.555,-0.38,0.06,0.05,0.39
13.565,-0.21,0.27,-0.22,0.41
13.575,0.14,-0.04,0.03,0.15
13.585,0.18,-0.23,-0.26,0.39
13.595,0.15,-0.33,-0.12,0.38
13.605,0.09,-0.23,-0.10,0.27
13.615,0.11,-0.11,-0.12,0.20
13.625,0.34,0.21,0.04,0.40
13.636,0.58,0.23,-0.00,0.62
13.645,0.32,0.05,-0.13,0.35
13.656,0.05,0.03,-0.19,0.19
13.666,-0.40,0.17,0.06,0.44
13.676,-0.43,0.31,0.32,0.62
13.686,-0.43,0.17,0.13,0.48
13.696,-0.10,0.06,-0.52,0.54
13.706,0.24,-0.31,0.13,0.42
13.716,0.25,-0.19,-0.26,0.41
13.726,0.05,-0.15,-0.15,0.22
13.736,0.18,-0.25,-0.06,0.31
13.746,0.09,-0.11,-0.22,0.26
13.756,0.49,0.20,0.08,0.53
13.767,0.53,0.30,0.12,0.62
13.777,0.29,0.05,-0.38,0.48
13.787,-0.19,0.05,-0.02,0.20
13.797,-0.55,0.20,0.18,0.61
13.807,-0.35,0.22,0.25,0.48
13.817,-0.26,0.25,-0.03,0.37
13.827,0.09,-0.07,-0.25,0.28
13.837,0.20,-0.41,-0.01,0.45
13.847,0.16,-0.26,-0.30,0.43
13.857,0.05,0.06,-0.11,0.13
13.867,0.09,-0.12,0.00,0.15
13.878,0.10,-0.23,-0.18,0.31
13.888,0.45,0.08,0.06,0.46
13.898,0.59,0.23,-0.01,0.63
13.908,0.36,0.16,-0.20,0.44
13.918,-0.20,0.09,-0.02,0.22
13.928,-0.72,0.44,0.13,0.85
13.938,-0.49,0.47,0.11,0.69
13.948,-0.21,0.03,0.16,0.26
13.958,0.13,-0.32,-0.41,0.53
13.968,0.26,-0.45,-0.16,0.54
13.978,0.29,-0.29,-0.02,0.41
13.988,-0.02,0.05,-0.23,0.23
13.999,0.02,-0.09,-0.14,0.17
14.009,0.31,-0.09,-0.05,0.32
14.019,0.46,0.12,0.15,0.50
14.029,0.47,0.33,-0.25,0.63
14.039,0.08,0.16,-0.01,0.18
14.049,-0.33,0.16,-0.08,0.37
14.059,-0.52,0.14,0.23,0.59
14.069,-0.35,0.10,0.18,0.41
14.079,-0.12,0.31,-0.31,0.45
14.089,0.24,-0.21,0.11,0.33
14.099,0.17,-0.45,-0.36,0.60
14.109,0.05,-0.28,-0.15,0.32
14.120,0.06,0.01,0.01,0.06
14.130,0.05,0.07,-0.27,0.29
14.140,0.23,-0.06,0.11,0.26
14.150,0.54,0.10,-0.01,0.55
14.160,0.38,0.32,-0.23,0.55
14.170,0.18,0.24,0.05,0.31
14.180,-0.37,0.01,0.06,0.38
14.190,-0.51,-0.01,0.08,0.51
14.200,-0.34,0.23,0.12,0.42
14.210,-0.13,0.38,-0.21,0.46
14.220,0.08,-0.18,0.02,0.20
14.230,0.24,-0.44,-0.38,0.62
14.241,0.09,-0.38,-0.01,0.39
14.251,0.18,-0.09,-0.08,0.22
14.261,0.12,0.10,-0.26,0.31
14.271,0.41,0.04,0.08,0.42
14.281,0.40,0.15,0.19,0.47
14.291,0.32,0.16,-0.37,0.51
14.301,0.02,0.32,-0.09,0.33
14.311,-0.33,0.04,0.31,0.46
14.321,-0.39,-0.15,0.09,0.42
14.331,-0.41,0.24,-0.11,0.49
14.342,-0.09,0.40,0.05,0.41
14.352,0.18,-0.02,-0.14,0.23
14.362,0.15,-0.52,-0.24,0.59
14.372,0.11,-0.47,-0.13,0.50
14.382,0.12,-0.18,-0.07,0.23
14.392,0.07,0.08,-0.11,0.15
14.402,0.42,0.19,-0.12,0.48
14.412,0.51,0.21,0.25,0.61
14.422,0.23,0.28,-0.46,0.59
14.432,0.09,0.04,0.11,0.15
14.442,-0.38,0.10,0.03,0.40
14.452,-0.38,-0.14,0.22,0.46
14.462,-0.34,0.17,-0.13,0.40
14.473,-0.18,0.32,-0.00,0.36
14.483,0.16,0.07,-0.22,0.28
14.493,0.18,-0.40,-0.10,0.45
14.503,0.20,-0.45,-0.22,0.54
14.513,0.13,-0.24,-0.06,0.28
14.523,0.21,0.04,0.14,0.26
14.533,0.48,0.43,-0.54,0.85
14.543,0.45,0.14,0.27,0.54
14.553,0.17,0.22,-0.26,0.38
14.563,-0.12,-0.05,0.04,0.14
14.574,-0.38,0.01,-0.14,0.40
14.583,-0.30,0.01,0.42,0.52
14.594,-0.22,0.25,-0.07,0.34
14.604,-0.10,0.29,-0.18,0.35
14.614,0.13,-0.06,-0.01,0.15
14.624,0.08,-0.36,-0.21,0.42
14.634,0.16,-0.45,-0.23,0.53
14.644,0.19,-0.27,0.09,0.35
14.654,0.22,0.06,-0.08,0.24
14.664,0.36,0.49,-0.30,0.68
14.674,0.37,0.22,0.36,0.56
14.684,0.37,0.09,-0.46,0.60
14.694,-0.22,-0.01,0.09,0.24
14.705,-0.22,-0.07,-0.03,0.24
14.715,-0.40,0.14,0.31,0.52
14.725,-0.29,0.30,-0.03,0.42
14.735,-0.24,0.24,-0.13,0.37
14.745,0.21,-0.14,-0.05,0.26
14.755,0.10,-0.26,-0.24,0.37
14.765,0.21,-0.42,-0.11,0.48
14.775,0.21,-0.33,-0.16,0.42
14.785,0.20,-0.08,-0.03,0.22
14.795,0.41,0.31,-0.01,0.51
14.805,0.35,0.38,0.05,0.52
14.815,0.20,0.23,-0.29,0.42
14.826,-0.11,-0.03,-0.03,0.12
14.836,-0.38,-0.04,0.00,0.38
14.846,-0.35,0.23,0.26,0.49
14.856,-0.21,0.33,-0.03,0.40
14.866,-0.02,0.05,-0.11,0.12
14.876,0.09,-0.24,-0.18,0.31
14.886,0.17,-0.34,-0.17,0.42
14.896,0.12,-0.17,-0.16,0.27
14.906,0.14,-0.26,-0.07,0.30
14.916,0.13,-0.12,-0.06,0.19
14.927,0.39,0.23,-0.10,0.46
14.937,0.48,0.38,0.06,0.61
14.946,0.31,0.25,-0.26,0.47
14.957,-0.07,-0.02,-0.09,0.11
14.967,-0.33,-0.08,0.07,0.35
14.977,-0.38,0.05,0.37,0.54
14.987,-0.39,0.52,-0.20,0.68
14.997,-0.02,0.13,-0.02,0.14
15.007,0.12,-0.30,-0.13,0.35
15.017,0.07,-0.31,-0.30,0.44
15.027,0.19,-0.17,-0.02,0.26
15.037,0.17,-0.18,-0.12,0.28
15.047,0.13,-0.17,-0.21,0.30
15.057,0.40,0.08,0.00,0.41
15.068,0.46,0.32,0.12,0.57
15.078,0.37,0.22,-0.30,0.52
15.088,-0.04,0.10,-0.09,0.14
15.098,-0.49,0.18,0.13,0.53
15.108,-0.46,0.13,0.31,0.56
15.118,-0.29,0.27,-0.07,0.40
15.128,0.00,0.17,-0.19,0.25
15.138,0.21,-0.31,-0.03,0.37
15.148,0.15,-0.38,-0.26,0.48
15.158,0.06,-0.28,-0.06,0.29
15.168,-0.01,-0.03,-0.17,0.17
15.179,0.26,-0.12,-0.07,0.29
15.189,0.30,0.04,0.03,0.30
15.199,0.52,0.18,-0.01,0.55
15.209,0.37,0.26,-0.25,0.52
15.219,-0.14,0.27,0.00,0.31
15.229,-0.34,0.01,0.04,0.34
15.239,-0.43,-0.02,0.26,0.50
15.249,-0.34,0.32,-0.02,0.47
15.259,-0.07,0.35,-0.15,0.39
15.269,0.21,-0.27,-0.01,0.34
15.279,0.09,-0.38,-0.33,0.51
15.290,0.15,-0.27,-0.03,0.31
15.299,0.06,-0.04,-0.13,0.15
15.310,0.24,-0.03,-0.17,0.30
15.320,0.49,0.02,0.14,0.51
15.330,0.45,0.19,0.01,0.48
15.340,0.22,0.19,-0.28,0.40
15.350,-0.08,0.23,-0.00,0.25
15.360,-0.34,-0.05,0.14,0.38
15.370,-0.44,-0.08,0.15,0.47
15.380,-0.31,0.27,0.04,0.41
15.390,-0.15,0.37,-0.21,0.45
15.400,0.19,-0.13,-0.08,0.24
15.410,0.26,-0.52,-0.21,0.62
15.421,0.11,-0.35,-0.20,0.42
15.431,0.06,-0.09,-0.09,0.14
15.441,0.19,0.05,-0.11,0.22
15.451,0.41,0.04,0.08,0.42
15.461,0.45,0.15,-0.07,0.48
15.471,0.32,0.18,-0.23,0.43
15.481,0.03,0.13,-0.01,0.14
15.491,-0.41,-0.01,0.08,0.42
15.501,-0.32,-0.03,0.25,0.41
15.511,-0.53,0.37,-0.06,0.64
15.522,-0.10,0.15,-0.22,0.28
15.532,0.12,-0.05,-0.07,0.14
15.542,0.19,-0.33,-0.15,0.41
15.552,0.29,-0.45,-0.10,0.54
15.562,0.07,-0.13,-0.20,0.25
15.572,0.27,0.08,-0.04,0.28
15.582,0.41,0.23,0.15,0.49
15.592,0.41,0.19,-0.17,0.49
15.602,0.13,0.16,-0.13,0.24
15.612,-0.03,0.05,-0.08,0.10
15.622,-0.46,0.07,0.15,0.49
15.632,-0.30,-0.02,0.30,0.42
15.642,-0.38,0.32,-0.30,0.58
15.653,0.01,0.05,0.02,0.06
15.662,0.26,-0.16,-0.19,0.36
15.673,0.10,-0.28,-0.21,0.36
15.683,0.22,-0.31,-0.19,0.43
15.693,0.07,-0.18,-0.01,0.20
15.703,0.34,0.12,-0.16,0.39
15.713,0.31,0.39,0.17,0.53
15.723,0.53,0.12,-0.09,0.55
15.733,0.02,0.07,-0.26,0.27
15.743,-0.13,-0.20,0.09,0.25
15.753,-0.23,0.00,0.12,0.25
15.763,-0.40,0.38,0.27,0.61
15.774,-0.32,0.34,-0.27,0.54
15.784,-0.13,-0.10,-0.11,0.19
