time,ax,ay,az,atotal
0.000,0.03,-0.25,-0.03,0.26
0.010,0.24,-0.04,-0.06,0.25
0.020,0.46,0.41,-0.34,0.70
0.030,0.44,0.35,0.08,0.57
0.040,0.22,0.04,-0.10,0.24
0.050,-0.00,-0.18,-0.03,0.18
0.060,-0.24,-0.11,-0.15,0.30
0.071,-0.50,0.16,0.53,0.75
0.081,-0.32,0.34,-0.14,0.49
0.091,-0.23,0.29,-0.15,0.40
0.101,0.04,0.04,0.04,0.07
0.111,0.03,-0.22,-0.29,0.37
0.121,0.13,-0.45,-0.16,0.50
0.131,0.25,-0.48,0.06,0.54
0.141,0.05,-0.14,-0.06,0.16
0.151,0.54,0.36,-0.30,0.71
0.161,0.54,0.50,0.11,0.74
0.172,0.10,0.07,-0.19,0.23
0.182,-0.22,-0.29,-0.05,0.37
0.192,-0.38,-0.23,-0.07,0.45
0.202,-0.36,0.22,0.30,0.52
0.212,-0.14,0.46,0.13,0.50
0.222,-0.02,0.16,-0.08,0.18
0.232,0.03,-0.11,-0.25,0.27
0.242,0.05,-0.32,-0.01,0.32
0.252,0.04,-0.20,-0.23,0.31
0.262,0.04,-0.25,0.16,0.30
0.272,0.16,-0.19,-0.05,0.25
0.282,0.46,0.28,-0.38,0.66
0.293,0.61,0.48,-0.03,0.78
0.303,0.19,0.17,0.22,0.34
0.313,-0.06,-0.33,-0.18,0.38
0.323,-0.46,-0.38,-0.18,0.63
0.333,-0.38,-0.07,0.55,0.67
0.343,-0.25,0.65,-0.15,0.71
0.353,-0.14,0.37,0.10,0.41
0.363,0.03,-0.17,-0.20,0.26
0.373,0.05,-0.34,-0.25,0.43
0.383,0.18,-0.20,-0.04,0.27
0.393,0.13,-0.11,-0.06,0.18
0.403,0.19,-0.30,0.06,0.36
0.414,0.29,0.12,-0.36,0.48
0.424,0.52,0.34,-0.13,0.64
0.434,0.25,0.19,0.39,0.50
0.444,-0.21,0.08,-0.34,0.41
0.454,-0.39,-0.27,-0.05,0.48
0.464,-0.32,-0.12,0.58,0.67
0.474,-0.26,0.43,-0.25,0.56
0.484,-0.19,0.45,-0.01,0.49
0.494,0.29,-0.24,0.13,0.39
0.504,-0.09,-0.36,-0.51,0.63
0.514,0.19,-0.41,0.08,0.46
0.524,0.02,-0.02,-0.12,0.13
0.535,0.11,-0.14,0.09,0.20
0.545,0.47,0.10,-0.41,0.63
0.555,0.54,0.30,-0.04,0.61
0.565,0.27,0.21,0.12,0.36
0.575,-0.02,0.09,-0.09,0.13
0.585,-0.41,-0.26,-0.19,0.53
0.595,-0.43,-0.15,0.44,0.63
0.605,-0.38,0.28,-0.00,0.48
0.615,-0.16,0.53,-0.23,0.60
0.625,0.08,0.04,0.15,0.17
0.635,0.07,-0.39,-0.38,0.55
0.645,0.11,-0.44,-0.14,0.48
0.655,0.19,-0.07,0.01,0.21
0.666,0.09,-0.01,0.01,0.09
0.676,0.44,-0.04,-0.26,0.51
0.686,0.52,0.21,0.13,0.57
0.696,0.29,0.25,-0.18,0.42
0.706,-0.06,0.04,-0.00,0.07
0.716,-0.29,-0.19,-0.17,0.39
0.726,-0.49,-0.17,0.54,0.75
0.736,-0.38,0.35,-0.18,0.55
0.746,-0.18,0.45,-0.10,0.50
0.756,0.10,0.05,-0.01,0.11
0.766,0.12,-0.43,-0.29,0.54
0.777,0.10,-0.52,0.03,0.53
0.787,0.17,-0.12,-0.17,0.27
0.797,0.02,0.08,0.03,0.09
0.807,0.41,0.12,-0.20,0.47
0.817,0.47,0.07,0.45,0.66
0.827,0.32,0.13,-0.54,0.64
0.837,0.00,-0.01,-0.06,0.06
0.847,-0.26,-0.05,0.27,0.38
0.857,-0.44,-0.01,0.15,0.47
0.867,-0.57,0.31,-0.01,0.65
0.877,-0.19,0.33,-0.05,0.38
0.888,0.09,0.00,-0.26,0.28
0.898,0.20,-0.40,-0.03,0.45
0.908,0.20,-0.49,-0.14,0.55
0.918,0.15,-0.23,-0.15,0.31
0.928,0.24,0.09,-0.05,0.26
0.938,0.45,0.24,0.13,0.53
0.948,0.43,0.10,0.07,0.45
0.958,0.18,0.10,-0.36,0.41
0.968,-0.18,0.02,0.03,0.18
0.978,-0.39,0.06,0.23,0.46
0.988,-0.41,0.10,0.17,0.45
0.998,-0.23,0.16,-0.02,0.28
1.009,-0.08,0.14,-0.06,0.17
1.019,0.04,-0.05,-0.22,0.23
1.029,0.13,-0.30,-0.14,0.36
1.039,0.13,-0.38,-0.11,0.41
1.049,-0.03,-0.22,-0.05,0.23
1.059,0.39,0.03,-0.24,0.46
1.069,0.40,0.32,0.39,0.65
1.079,0.52,0.18,-0.30,0.62
1.089,0.08,-0.04,-0.15,0.18
1.099,-0.20,-0.19,0.14,0.31
1.109,-0.34,0.09,-0.11,0.37
1.120,-0.44,0.31,0.55,0.77
1.129,-0.31,0.35,-0.18,0.51
1.140,-0.25,-0.01,-0.28,0.38
1.150,0.21,-0.23,0.05,0.31
1.160,0.23,-0.25,-0.22,0.41
1.170,0.20,-0.39,-0.10,0.45
1.180,0.12,-0.17,-0.14,0.26
1.190,0.31,0.05,0.06,0.32
1.200,0.47,0.32,0.06,0.57
1.210,0.37,0.14,-0.09,0.41
1.220,0.04,-0.04,-0.29,0.29
1.230,-0.30,-0.08,0.08,0.32
1.241,-0.38,0.13,0.29,0.50
1.251,-0.47,0.54,-0.08,0.72
1.261,-0.17,0.23,0.10,0.30
1.271,0.01,-0.24,-0.29,0.38
1.281,0.19,-0.47,-0.13,0.53
1.291,0.04,-0.14,-0.16,0.22
1.301,0.08,-0.15,-0.07,0.18
1.311,0.17,-0.25,-0.11,0.32
1.321,0.32,0.01,-0.06,0.33
1.331,0.49,0.28,0.16,0.58
1.341,0.45,0.30,-0.27,0.60
1.351,-0.00,-0.10,0.02,0.10
1.362,-0.38,-0.05,-0.07,0.39
1.372,-0.49,0.06,0.48,0.69
1.382,-0.42,0.57,-0.33,0.78
1.392,-0.18,0.22,0.21,0.35
1.402,0.07,-0.22,-0.31,0.39
1.412,0.13,-0.47,-0.17,0.52
1.422,0.28,-0.29,-0.04,0.40
1.432,0.10,-0.10,-0.16,0.22
1.442,0.19,-0.21,-0.06,0.29
1.452,0.37,0.07,0.02,0.38
1.462,0.50,0.25,0.06,0.56
1.472,0.24,0.27,-0.27,0.45
1.483,-0.11,0.04,-0.10,0.16
1.493,-0.41,-0.05,0.24,0.47
1.503,-0.59,0.12,0.22,0.64
1.513,-0.26,0.48,-0.19,0.58
1.523,-0.02,0.25,0.01,0.25
1.533,0.18,-0.28,-0.12,0.35
1.543,0.13,-0.56,-0.26,0.63
1.553,0.04,-0.33,-0.07,0.34
1.563,0.02,0.03,-0.16,0.16
1.573,0.20,-0.15,0.06,0.25
1.583,0.38,0.10,-0.11,0.41
1.593,0.52,0.17,0.10,0.55
1.603,0.26,0.28,-0.23,0.44
1.613,-0.16,0.01,0.04,0.17
1.624,-0.46,-0.10,0.10,0.48
1.634,-0.62,0.25,0.40,0.78
1.644,-0.16,0.55,-0.62,0.85
1.654,-0.04,0.03,0.38,0.39
1.664,0.28,-0.34,-0.33,0.55
1.674,-0.03,-0.47,-0.26,0.53
1.684,0.21,-0.32,0.05,0.39
1.694,0.01,0.08,-0.20,0.22
1.704,0.30,0.03,-0.14,0.33
1.714,0.49,0.01,0.31,0.58
1.725,0.32,0.18,-0.19,0.41
1.735,0.22,0.20,-0.24,0.38
1.745,-0.20,0.06,0.21,0.30
1.755,-0.38,-0.23,0.08,0.45
1.765,-0.44,0.14,0.15,0.49
1.775,-0.27,0.46,-0.02,0.54
1.785,-0.00,0.35,-0.22,0.41
1.795,0.17,-0.30,0.07,0.35
1.805,0.12,-0.57,-0.34,0.67
1.815,0.06,-0.40,-0.21,0.46
1.825,0.18,-0.05,0.13,0.23
1.835,0.17,0.20,-0.20,0.33
1.846,0.52,0.08,0.12,0.54
1.856,0.42,0.21,-0.10,0.48
1.866,0.14,0.08,-0.23,0.28
1.876,-0.10,-0.04,-0.02,0.11
1.886,-0.45,-0.15,0.34,0.58
1.896,-0.46,0.16,0.03,0.49
1.906,-0.36,0.48,-0.09,0.61
1.916,-0.07,0.22,0.08,0.25
1.926,0.15,-0.13,-0.34,0.40
1.936,0.23,-0.62,0.08,0.67
1.946,0.08,-0.33,-0.39,0.52
1.957,0.22,-0.10,0.07,0.25
1.967,0.34,0.18,0.05,0.39
1.977,0.40,0.31,-0.05,0.51
1.987,0.30,0.09,-0.06,0.32
1.997,0.03,0.03,-0.27,0.27
2.007,-0.17,-0.11,0.05,0.21
2.017,-0.38,-0.06,0.21,0.43
2.027,-0.33,0.15,0.15,0.39
2.037,-0.32,0.43,-0.14,0.56
2.047,0.03,0.17,0.02,0.17
2.057,0.08,-0.13,-0.23,0.28
2.067,0.11,-0.46,-0.17,0.50
2.077,0.22,-0.32,-0.19,0.44
2.088,0.17,-0.11,0.11,0.23
2.098,0.13,0.31,-0.16,0.37
2.108,0.31,0.30,0.09,0.44
2.118,0.65,-0.02,-0.14,0.66
2.128,-0.00,-0.08,-0.14,0.16
2.138,-0.19,-0.17,-0.10,0.27
2.148,-0.38,0.03,0.36,0.53
2.158,-0.40,0.22,0.19,0.49
2.168,-0.37,0.38,-0.35,0.64
2.178,0.11,0.08,0.05,0.15
2.189,0.14,-0.16,-0.07,0.22
2.199,0.10,-0.31,-0.32,0.46
2.209,0.23,-0.46,0.03,0.52
2.219,0.13,-0.15,-0.16,0.25
2.229,0.34,0.21,0.03,0.40
2.239,0.37,0.44,0.28,0.64
2.249,0.25,0.13,-0.46,0.54
2.259,-0.06,-0.25,0.00,0.25
2.269,-0.25,-0.19,-0.02,0.32
2.279,-0.28,0.03,0.25,0.37
2.289,-0.22,0.43,0.15,0.51
2.299,-0.13,0.24,-0.00,0.27
2.309,-0.12,0.01,-0.30,0.32
2.320,0.07,-0.28,0.00,0.29
2.330,0.08,-0.22,-0.23,0.33
2.340,0.14,-0.17,-0.14,0.26
2.350,0.08,-0.13,0.02,0.15
2.360,0.43,0.01,-0.12,0.45
2.370,0.43,0.36,0.03,0.56
2.380,0.31,0.34,-0.02,0.46
2.390,0.12,-0.23,-0.21,0.34
2.400,-0.31,-0.36,-0.02,0.47
2.410,-0.33,-0.11,0.24,0.42
2.420,-0.23,0.44,0.19,0.53
2.430,-0.32,0.51,-0.03,0.60
2.441,-0.02,-0.04,-0.22,0.23
2.451,-0.03,-0.36,0.04,0.36
2.461,0.20,-0.29,-0.38,0.52
2.471,0.08,-0.05,0.01,0.09
2.481,0.32,-0.14,-0.07,0.36
2.491,0.20,-0.05,-0.07,0.21
2.501,0.39,0.17,0.12,0.45
2.511,0.33,0.27,-0.16,0.46
2.521,0.11,0.15,-0.05,0.19
2.531,-0.22,-0.20,-0.05,0.30
2.541,-0.36,-0.13,0.23,0.45
2.552,-0.33,0.22,0.19,0.44
2.562,-0.27,0.46,-0.11,0.55
2.572,0.05,0.01,-0.08,0.09
2.582,0.03,-0.29,-0.22,0.37
2.592,0.09,-0.40,-0.03,0.41
2.602,0.09,-0.13,-0.20,0.25
2.612,0.15,-0.03,-0.13,0.21
2.622,0.39,-0.02,0.02,0.39
2.632,0.33,0.15,0.19,0.41
2.642,0.42,0.22,-0.35,0.59
2.652,0.06,0.20,-0.09,0.23
2.662,-0.21,-0.17,0.10,0.29
2.673,-0.38,-0.11,0.17,0.43
2.683,-0.40,0.17,0.22,0.48
2.693,-0.23,0.46,-0.17,0.54
2.703,-0.06,0.15,-0.01,0.16
2.713,0.21,-0.44,-0.19,0.52
2.723,0.00,-0.47,-0.22,0.52
2.733,0.19,-0.12,0.04,0.23
2.743,0.13,0.16,-0.08,0.22
2.753,0.31,0.02,-0.10,0.33
2.763,0.44,0.08,0.17,0.48
2.773,0.48,0.11,-0.15,0.51
2.784,0.04,0.16,-0.20,0.26
2.794,-0.28,-0.04,0.07,0.29
2.804,-0.40,-0.26,0.34,0.58
2.814,-0.43,0.28,0.01,0.52
2.824,-0.15,0.48,-0.03,0.50
2.834,-0.00,0.17,-0.05,0.18
2.844,0.18,-0.49,-0.11,0.53
2.854,0.07,-0.55,-0.31,0.63
2.864,0.08,-0.22,0.09,0.25
2.874,0.10,0.11,-0.08,0.17
2.884,0.37,0.09,-0.03,0.39
2.894,0.43,0.08,0.17,0.47
2.905,0.42,0.16,-0.33,0.56
2.914,0.07,0.08,-0.04,0.11
2.925,-0.20,0.03,-0.05,0.21
2.935,-0.44,-0.09,0.36,0.58
2.945,-0.45,0.19,0.05,0.49
2.955,-0.33,0.35,-0.12,0.49
2.965,0.06,0.04,-0.05,0.09
2.975,0.17,-0.28,-0.21,0.39
2.985,0.16,-0.58,-0.08,0.61
2.995,0.10,-0.24,-0.21,0.33
3.005,0.17,0.03,0.04,0.18
3.016,0.44,0.26,0.03,0.51
3.025,0.41,0.20,0.04,0.46
3.036,0.24,0.08,-0.25,0.36
3.045,0.04,-0.04,-0.04,0.07
3.056,-0.35,0.06,0.03,0.36
3.066,-0.36,0.10,0.36,0.52
3.076,-0.38,0.16,0.05,0.42
3.086,-0.19,0.28,-0.41,0.53
3.096,0.09,-0.07,0.30,0.32
3.106,0.15,-0.25,-0.42,0.52
3.116,0.10,-0.43,-0.11,0.46
3.126,0.04,-0.20,0.02,0.21
3.137,0.28,0.01,-0.23,0.37
3.146,0.40,0.24,0.21,0.51
3.157,0.55,0.21,0.00,0.58
3.167,0.18,-0.03,-0.16,0.25
3.177,-0.06,-0.06,-0.14,0.16
3.187,-0.32,-0.06,0.12,0.35
3.197,-0.37,0.29,0.35,0.59
3.207,-0.54,0.40,-0.05,0.68
3.217,-0.04,0.17,-0.30,0.35
3.227,0.13,-0.30,0.17,0.37
3.237,0.09,-0.26,-0.42,0.50
3.247,0.22,-0.37,-0.05,0.43
3.257,0.21,-0.25,-0.04,0.33
3.267,0.32,0.03,-0.22,0.39
3.278,0.38,0.22,0.32,0.55
3.288,0.37,0.35,-0.29,0.59
3.298,0.06,0.01,0.03,0.07
3.308,-0.10,-0.09,-0.20,0.24
3.318,-0.32,-0.13,0.24,0.43
3.328,-0.44,0.38,0.25,0.63
3.338,-0.38,0.56,-0.21,0.71
3.348,0.01,-0.01,0.10,0.10
3.358,0.08,-0.39,-0.18,0.43
3.368,0.16,-0.32,-0.19,0.40
3.378,0.16,-0.25,-0.00,0.30
3.388,0.10,-0.22,-0.11,0.27
3.399,0.22,-0.05,-0.03,0.23
3.409,0.44,0.27,0.10,0.53
3.419,0.55,0.34,-0.16,0.66
3.429,0.18,0.01,-0.13,0.22
3.439,-0.24,-0.16,-0.01,0.29
3.449,-0.37,-0.18,0.32,0.53
3.459,-0.58,0.54,-0.04,0.79
3.469,-0.36,0.60,0.02,0.69
3.479,0.13,-0.06,-0.05,0.15
3.489,0.06,-0.44,-0.32,0.55
3.500,0.36,-0.48,-0.08,0.60
3.509,0.18,-0.15,-0.08,0.25
3.520,0.02,-0.21,-0.04,0.22
3.530,0.22,0.00,-0.11,0.24
3.540,0.47,0.21,0.17,0.55
3.550,0.42,0.35,-0.23,0.59
3.560,0.11,0.20,-0.06,0.23
3.570,-0.29,-0.18,0.04,0.34
3.580,-0.48,-0.06,0.24,0.54
3.590,-0.57,0.51,0.01,0.76
3.600,-0.15,0.54,-0.17,0.58
3.610,0.24,-0.19,0.16,0.35
3.621,0.01,-0.45,-0.44,0.63
3.631,0.30,-0.49,-0.06,0.58
3.641,0.09,-0.16,0.04,0.19
3.651,0.06,-0.05,-0.30,0.31
3.661,0.29,0.02,0.19,0.35
3.671,0.46,0.17,0.14,0.51
3.681,0.41,0.27,-0.42,0.64
3.691,0.04,0.11,0.10,0.15
3.701,-0.36,-0.19,0.16,0.43
3.711,-0.46,0.02,0.11,0.47
3.721,-0.58,0.58,-0.04,0.82
3.731,-0.17,0.49,-0.05,0.52
3.742,0.11,-0.22,-0.15,0.29
3.752,0.26,-0.53,-0.35,0.69
3.762,0.26,-0.51,0.10,0.58
3.772,0.15,-0.09,-0.25,0.31
3.782,0.10,0.03,-0.07,0.12
3.792,0.32,0.05,0.14,0.35
3.802,0.43,0.19,-0.09,0.48
3.812,0.39,0.17,-0.20,0.47
3.822,0.00,0.13,-0.00,0.13
3.832,-0.43,-0.22,0.10,0.49
3.842,-0.40,-0.04,0.30,0.51
3.853,-0.49,0.51,-0.09,0.71
3.863,-0.05,0.50,-0.04,0.51
3.873,0.09,-0.07,-0.05,0.13
3.883,0.23,-0.59,-0.33,0.71
3.893,0.13,-0.51,-0.01,0.53
3.903,0.11,-0.12,-0.12,0.20
3.913,0.11,0.14,-0.11,0.21
3.923,0.43,0.04,0.24,0.49
3.933,0.49,0.16,-0.21,0.55
3.943,0.28,0.12,-0.13,0.33
3.953,0.03,0.03,-0.08,0.09
3.963,-0.42,-0.14,0.09,0.45
3.974,-0.45,-0.06,0.30,0.54
3.984,-0.48,0.40,-0.16,0.65
3.994,-0.11,0.43,-0.08,0.45
4.004,0.11,0.03,-0.07,0.13
4.014,0.22,-0.52,-0.21,0.60
4.024,0.15,-0.52,-0.16,0.56
4.034,0.21,-0.15,-0.08,0.27
4.044,0.29,0.21,-0.03,0.36
4.054,0.38,0.26,0.07,0.47
4.064,0.38,0.11,-0.09,0.41
4.074,0.12,0.01,-0.15,0.19
4.084,-0.18,-0.06,-0.20,0.27
4.094,-0.31,-0.04,0.30,0.43
4.105,-0.37,0.07,0.29,0.48
4.115,-0.34,0.37,-0.27,0.57
4.125,0.00,0.19,0.07,0.21
4.135,0.08,-0.05,-0.12,0.15
4.145,0.10,-0.36,-0.22,0.43
4.155,0.13,-0.44,-0.08,0.46
4.165,0.06,-0.08,-0.14,0.17
4.175,0.34,0.18,0.08,0.39
4.185,0.45,0.32,0.06,0.55
4.195,0.45,0.04,-0.15,0.48
4.205,0.12,-0.02,-0.23,0.26
4.215,-0.22,-0.10,0.00,0.24
4.226,-0.18,-0.13,0.18,0.28
4.236,-0.50,0.23,0.19,0.58
4.246,-0.28,0.28,-0.01,0.40
4.256,-0.12,0.16,-0.16,0.26
4.266,-0.01,-0.01,-0.08,0.08
4.276,0.26,-0.20,-0.10,0.35
4.286,0.20,-0.41,-0.11,0.47
4.296,0.16,-0.32,-0.19,0.41
4.306,0.32,-0.02,0.02,0.32
4.316,0.36,0.39,0.14,0.55
4.326,0.34,0.34,-0.14,0.50
4.337,0.03,-0.15,-0.12,0.19
4.347,-0.23,-0.17,-0.22,0.36
4.357,-0.28,-0.06,0.23,0.37
4.367,-0.20,0.30,0.39,0.54
4.377,-0.28,0.46,-0.23,0.59
4.387,-0.01,0.01,-0.03,0.03
4.397,0.10,-0.30,-0.13,0.34
4.407,0.06,-0.30,-0.20,0.36
4.417,0.10,-0.16,-0.10,0.21
4.427,0.20,-0.25,-0.02,0.32
4.437,0.19,0.00,-0.23,0.30
4.448,0.37,0.36,0.23,0.56
4.458,0.47,0.45,-0.03,0.65
4.468,0.11,-0.03,-0.25,0.28
4.478,-0.17,-0.26,-0.14,0.34
4.488,-0.33,-0.27,0.23,0.48
4.498,-0.31,0.19,0.17,0.40
4.508,-0.35,0.52,0.00,0.63
4.518,-0.08,0.09,0.01,0.12
4.528,0.01,-0.32,-0.29,0.43
4.538,0.14,-0.42,-0.10,0.45
4.548,0.12,-0.11,-0.15,0.22
4.558,0.04,-0.12,-0.07,0.14
4.569,0.03,-0.26,-0.16,0.31
4.578,0.05,-0.26,-0.19,0.33
4.589,-0.04,-0.30,0.20,0.36
4.599,0.02,-0.33,-0.19,0.38
4.609,0.03,-0.55,-0.36,0.66
4.619,0.05,-0.80,-0.07,0.80
4.629,-0.13,-0.73,-0.08,0.74
4.639,-0.20,0.02,-0.09,0.22
4.649,0.79,1.23,-0.56,1.57
4.659,0.91,2.17,-0.38,2.39
4.669,0.62,0.86,0.40,1.13
4.679,0.23,0.06,-0.91,0.94
4.689,0.14,-0.67,0.56,0.88
4.700,-0.92,-0.43,1.19,1.56
4.710,-0.14,0.08,0.50,0.52
4.720,-0.22,0.46,-0.82,0.97
4.730,0.05,0.61,0.38,0.72
4.740,-0.26,0.13,0.26,0.39
4.750,-0.26,0.09,-0.35,0.45
4.760,-0.49,-0.16,0.36,0.63
4.770,0.16,-0.42,0.11,0.46
4.780,0.07,-0.29,-0.55,0.62
4.790,0.42,-0.49,0.21,0.68
4.800,0.07,-0.25,-0.28,0.38
4.811,-0.05,-0.03,-0.18,0.19
4.821,0.12,0.14,0.06,0.20
4.831,0.33,0.14,-0.11,0.38
4.841,0.51,0.05,0.15,0.53
4.851,0.38,0.16,-0.26,0.49
4.861,0.06,0.07,-0.02,0.10
4.871,-0.34,0.05,-0.07,0.35
4.881,-0.36,-0.17,0.37,0.54
4.891,-0.40,0.21,0.05,0.45
4.901,-0.15,0.47,-0.23,0.54
4.911,-0.01,0.10,0.06,0.12
4.921,0.17,-0.40,-0.22,0.48
4.932,0.09,-0.63,-0.21,0.67
4.942,0.08,-0.31,-0.14,0.35
4.952,0.10,0.02,0.02,0.10
4.962,0.29,0.30,-0.08,0.42
4.972,0.42,0.13,0.17,0.47
4.982,0.44,0.14,-0.34,0.58
4.992,0.09,0.02,-0.04,0.10
5.002,-0.20,0.00,0.02,0.20
5.012,-0.32,-0.15,0.32,0.48
5.022,-0.52,0.11,0.07,0.54
5.032,-0.25,0.37,-0.23,0.51
5.042,-0.04,0.08,-0.01,0.09
5.053,0.20,-0.24,-0.14,0.34
5.063,0.13,-0.52,-0.12,0.55
5.073,0.09,-0.35,-0.21,0.42
5.083,0.19,-0.07,-0.02,0.20
5.093,0.28,0.34,0.09,0.45
5.103,0.52,0.30,-0.02,0.60
5.113,0.29,0.07,-0.10,0.31
5.123,-0.01,0.06,-0.18,0.19
5.133,-0.27,-0.05,0.05,0.28
5.143,-0.29,0.04,0.43,0.52
5.153,-0.49,0.30,-0.07,0.58
5.163,-0.09,0.22,-0.25,0.34
5.174,0.04,-0.16,0.01,0.17
5.184,0.21,-0.33,-0.26,0.46
5.194,0.05,-0.43,-0.01,0.43
5.204,0.05,-0.22,-0.22,0.31
5.214,0.17,-0.01,0.05,0.17
5.224,0.44,0.33,0.08,0.55
5.234,0.45,0.44,-0.16,0.65
5.244,0.38,-0.05,-0.07,0.38
5.254,0.04,-0.09,-0.16,0.19
5.264,-0.24,-0.23,0.21,0.39
5.274,-0.37,0.14,0.19,0.44
5.285,-0.52,0.58,0.04,0.78
5.295,-0.17,0.28,-0.14,0.35
5.305,0.03,-0.33,-0.06,0.33
5.315,0.17,-0.42,-0.34,0.57
5.325,0.16,-0.33,-0.01,0.37
5.335,0.19,-0.30,-0.06,0.35
5.345,0.16,-0.01,-0.16,0.22
5.355,0.35,0.26,0.18,0.48
5.365,0.53,0.32,-0.17,0.64
5.375,0.16,0.13,-0.11,0.23
5.385,-0.13,-0.10,-0.04,0.17
5.395,-0.31,-0.15,0.23,0.41
5.405,-0.50,0.34,0.25,0.65
5.416,-0.25,0.59,-0.20,0.67
5.426,0.12,-0.05,0.11,0.17
5.436,-0.04,-0.55,-0.32,0.64
5.446,0.22,-0.47,-0.28,0.59
5.456,0.02,-0.12,0.17,0.20
5.466,0.08,-0.14,-0.31,0.35
5.476,0.15,0.00,-0.02,0.15
5.486,0.44,0.21,0.24,0.54
5.496,0.53,0.37,-0.31,0.72
5.506,0.28,0.03,-0.04,0.29
5.516,-0.19,-0.10,-0.02,0.22
5.526,-0.43,-0.13,0.33,0.56
5.537,-0.52,0.43,-0.07,0.68
5.547,-0.25,0.53,-0.11,0.59
5.557,0.23,-0.17,0.12,0.30
5.567,-0.04,-0.44,-0.40,0.60
5.577,0.21,-0.44,-0.05,0.49
5.587,0.03,-0.14,0.14,0.20
5.597,0.07,-0.02,-0.42,0.42
5.607,0.27,0.05,0.23,0.36
5.617,0.51,0.17,0.07,0.54
5.627,0.35,0.35,-0.36,0.61
5.638,0.07,0.07,0.11,0.15
5.648,-0.23,-0.24,-0.02,0.34
5.658,-0.39,-0.11,0.23,0.47
5.668,-0.46,0.52,-0.05,0.69
5.678,-0.10,0.50,-0.13,0.53
5.688,0.04,-0.23,-0.06,0.24
5.698,0.10,-0.55,-0.28,0.62
5.708,0.08,-0.44,0.00,0.45
5.718,-0.01,-0.12,-0.16,0.20
5.728,0.07,0.11,-0.21,0.25
5.738,0.40,0.08,0.27,0.48
5.748,0.43,0.23,0.00,0.49
5.759,0.46,0.15,-0.28,0.56
5.769,-0.03,0.18,-0.06,0.19
5.779,-0.17,-0.16,0.25,0.35
5.789,-0.41,-0.05,0.18,0.45
5.799,-0.51,0.47,-0.20,0.73
5.809,-0.05,0.38,-0.02,0.39
5.819,0.05,-0.18,-0.00,0.18
5.829,0.18,-0.54,-0.36,0.67
5.839,0.03,-0.41,-0.06,0.42
5.849,0.17,-0.10,-0.04,0.20
5.859,0.05,0.15,-0.13,0.20
5.869,0.34,0.05,0.13,0.37
5.880,0.50,0.16,-0.12,0.54
5.890,0.36,0.10,-0.12,0.39
5.900,-0.06,0.18,-0.12,0.22
5.910,-0.32,-0.11,0.27,0.43
5.920,-0.34,-0.04,0.24,0.41
5.930,-0.40,0.31,-0.23,0.56
5.940,0.04,0.26,0.00,0.26
5.950,0.07,-0.03,-0.12,0.14
5.960,0.11,-0.50,-0.09,0.52
5.970,0.06,-0.45,-0.23,0.50
5.980,0.01,-0.13,-0.06,0.14
5.990,0.19,0.17,0.03,0.26
6.001,0.37,0.23,0.09,0.44
6.011,0.55,0.11,-0.09,0.57
6.021,0.22,0.03,-0.11,0.25
6.031,-0.06,0.01,-0.22,0.23
6.041,-0.32,-0.08,0.31,0.46
6.051,-0.30,-0.10,0.27,0.42
6.061,-0.43,0.34,-0.42,0.69
6.071,-0.08,0.28,0.20,0.36
6.081,0.12,0.03,-0.19,0.23
6.091,0.04,-0.42,-0.20,0.47
6.102,0.10,-0.47,-0.16,0.50
6.111,0.17,-0.18,-0.10,0.27
6.122,0.26,0.22,-0.03,0.34
6.132,0.45,0.41,0.17,0.63
6.142,0.40,0.15,-0.21,0.48
6.152,0.08,-0.05,-0.16,0.19
6.162,-0.11,-0.14,0.02,0.18
6.172,-0.35,0.08,0.14,0.38
6.182,-0.14,0.12,0.29,0.34
6.192,-0.30,0.27,-0.12,0.42
6.202,-0.03,0.10,-0.10,0.15
6.212,0.06,-0.13,-0.09,0.17
6.222,-0.00,-0.26,-0.17,0.31
6.232,0.06,-0.42,-0.07,0.43
6.243,0.01,-0.16,-0.21,0.26
6.253,0.37,0.17,0.10,0.42
6.263,0.45,0.39,0.18,0.62
6.273,0.39,0.20,-0.39,0.58
6.283,0.08,-0.17,0.02,0.19
6.293,-0.15,-0.20,-0.16,0.29
6.303,-0.30,-0.09,0.21,0.38
6.313,-0.21,0.36,0.28,0.50
6.323,-0.30,0.40,-0.13,0.51
6.333,-0.17,0.14,-0.16,0.27
6.343,-0.02,-0.11,0.01,0.11
6.354,-0.37,0.17,-0.58,0.71
6.364,0.71,-0.28,-0.16,0.78
6.374,0.26,0.22,-1.03,1.09
6.384,0.23,1.67,-3.42,3.81
6.394,0.74,2.97,-4.43,5.39
6.404,0.27,-4.97,10.40,11.53
6.414,-0.89,2.52,-1.93,3.30
6.424,2.03,-0.67,0.05,2.14
6.434,-2.49,-0.04,-0.03,2.49
6.444,-0.04,-0.77,0.28,0.82
6.454,-0.14,-0.83,-0.01,0.84
6.464,0.36,-0.54,-0.16,0.67
6.475,0.25,-0.06,-0.26,0.36
6.485,0.20,0.18,-0.17,0.32
6.495,-0.15,0.15,0.03,0.21
6.505,-0.12,-0.08,-0.28,0.32
6.515,-0.07,-0.30,0.22,0.38
6.525,0.61,0.20,-0.48,0.81
6.535,0.74,0.53,-0.03,0.91
6.545,0.33,0.23,0.14,0.43
6.555,-0.22,-0.24,-0.07,0.33
6.565,-0.53,-0.38,-0.22,0.68
6.575,-0.30,-0.15,0.45,0.56
6.585,-0.25,0.64,-0.03,0.69
6.595,-0.18,0.29,0.04,0.34
6.606,0.05,-0.17,-0.31,0.36
6.616,0.04,-0.32,-0.02,0.32
6.626,0.14,-0.23,-0.18,0.33
6.636,0.16,-0.20,-0.14,0.29
6.646,0.18,-0.23,0.21,0.36
6.656,0.40,0.18,-0.55,0.70
6.666,0.43,0.31,0.19,0.57
6.676,0.55,0.28,-0.22,0.65
6.686,-0.23,0.02,0.19,0.29
6.696,-0.49,0.13,-0.32,0.60
6.706,-0.43,-0.05,0.56,0.71
6.717,-0.09,0.29,-0.25,0.39
6.727,-0.02,0.24,0.09,0.25
6.737,0.15,-0.30,-0.07,0.34
6.747,-0.13,-0.33,-0.41,0.54
6.757,0.03,-0.28,0.16,0.32
6.767,0.05,-0.07,-0.20,0.22
6.777,0.09,-0.19,0.06,0.22
6.787,0.39,0.06,-0.17,0.43
6.797,0.62,0.30,-0.05,0.69
6.807,0.38,0.26,0.01,0.46
6.817,0.01,0.06,-0.07,0.09
6.827,-0.46,-0.07,-0.11,0.47
6.838,-0.43,-0.14,0.40,0.60
6.848,-0.31,0.25,-0.02,0.40
6.858,-0.24,0.47,-0.28,0.59
6.868,0.27,-0.10,0.19,0.34
6.878,0.08,-0.46,-0.38,0.60
6.888,-0.03,-0.34,-0.24,0.42
6.898,0.22,-0.11,0.18,0.30
6.908,0.14,-0.02,-0.07,0.15
6.918,0.35,0.12,-0.32,0.49
6.928,0.55,0.27,0.21,0.65
6.938,0.31,0.36,-0.28,0.55
6.949,-0.12,0.04,0.27,0.30
6.959,-0.35,-0.10,-0.33,0.49
6.969,-0.43,-0.25,0.55,0.74
6.979,-0.30,0.26,-0.18,0.43
6.989,-0.06,0.39,-0.17,0.43
6.999,0.11,-0.05,0.05,0.13
7.009,0.14,-0.54,-0.33,0.64
7.019,0.01,-0.51,-0.04,0.51
7.029,0.05,-0.20,-0.31,0.37
7.039,0.13,0.02,0.12,0.18
7.049,0.48,0.16,-0.23,0.56
7.059,0.41,0.20,0.30,0.55
7.070,0.41,0.21,-0.43,0.63
7.080,-0.11,0.03,-0.03,0.12
7.090,-0.24,-0.08,0.21,0.33
7.100,-0.42,-0.02,0.33,0.53
7.110,-0.53,0.36,-0.30,0.70
7.120,-0.08,0.26,0.13,0.30
7.130,0.13,0.04,-0.27,0.30
7.140,0.04,-0.39,-0.10,0.40
7.150,0.32,-0.44,-0.10,0.56
7.160,0.08,-0.19,-0.12,0.24
7.171,0.21,0.03,-0.14,0.26
7.180,0.36,0.20,0.20,0.45
7.191,0.47,0.17,-0.10,0.51
7.200,0.21,0.10,-0.21,0.31
7.211,-0.19,-0.03,0.02,0.20
7.221,-0.34,0.08,-0.01,0.35
7.231,-0.33,-0.01,0.51,0.60
7.241,-0.37,0.31,-0.36,0.60
7.251,-0.12,0.05,-0.00,0.13
7.261,0.16,-0.17,-0.15,0.28
7.271,0.14,-0.30,-0.23,0.40
7.281,0.13,-0.39,-0.05,0.41
7.291,0.08,-0.15,-0.15,0.23
7.301,0.24,0.11,-0.04,0.27
7.311,0.40,0.39,0.11,0.57
7.322,0.49,0.21,-0.07,0.54
7.332,0.19,0.07,-0.23,0.31
7.342,-0.27,-0.03,-0.01,0.27
7.352,-0.31,-0.05,0.14,0.34
7.362,-0.37,0.20,0.35,0.55
7.372,-0.31,0.40,-0.27,0.57
7.382,-0.09,-0.03,-0.07,0.11
7.392,0.15,-0.29,-0.15,0.36
7.402,0.13,-0.26,-0.16,0.33
7.412,0.20,-0.38,0.00,0.43
7.423,0.16,-0.27,-0.25,0.40
7.433,0.33,0.08,-0.10,0.35
7.443,0.41,0.31,0.44,0.68
7.453,0.41,0.30,-0.49,0.71
7.463,-0.06,0.01,0.04,0.08
7.473,-0.23,-0.08,-0.04,0.25
7.483,-0.41,0.09,0.23,0.48
7.493,-0.26,0.40,0.09,0.49
7.503,-0.12,0.20,0.02,0.23
7.513,-0.11,-0.16,-0.38,0.42
7.523,0.22,-0.44,0.03,0.50
7.533,0.07,-0.15,-0.17,0.24
7.544,0.02,-0.12,-0.13,0.17
7.554,0.13,-0.22,-0.09,0.27
7.564,0.36,0.05,-0.00,0.37
7.574,0.51,0.33,0.05,0.61
7.584,0.42,0.27,-0.15,0.52
7.594,-0.02,-0.07,-0.10,0.13
7.604,-0.31,-0.15,-0.02,0.35
7.614,-0.41,-0.01,0.45,0.61
7.624,-0.52,0.50,-0.17,0.74
7.634,-0.13,0.25,-0.06,0.29
7.644,0.16,-0.24,-0.15,0.33
7.654,0.16,-0.38,-0.17,0.44
7.664,0.13,-0.21,-0.07,0.25
7.675,0.02,-0.11,-0.12,0.16
7.685,0.18,-0.13,-0.08,0.24
7.695,0.34,0.12,0.12,0.38
7.705,0.54,0.34,-0.07,0.64
7.715,0.34,0.26,-0.15,0.45
7.725,-0.13,-0.05,-0.02,0.14
7.735,-0.37,-0.11,0.05,0.39
7.745,-0.49,0.09,0.35,0.61
7.755,-0.29,0.62,-0.27,0.73
7.765,-0.00,0.13,0.10,0.16
7.776,0.17,-0.40,-0.26,0.51
7.785,0.10,-0.47,-0.25,0.54
7.796,0.04,-0.30,0.05,0.31
7.806,0.01,-0.05,-0.22,0.23
7.816,0.12,-0.05,-0.11,0.17
7.826,0.49,0.16,0.19,0.54
7.836,0.51,0.33,-0.05,0.61
7.846,0.27,0.27,-0.21,0.44
7.856,-0.11,-0.04,-0.02,0.12
7.866,-0.43,-0.16,0.22,0.51
7.876,-0.47,0.16,0.18,0.53
7.886,-0.34,0.48,-0.11,0.59
7.897,-0.11,0.27,-0.09,0.30
7.907,0.35,-0.36,-0.12,0.51
7.917,0.06,-0.47,-0.13,0.49
7.927,0.12,-0.23,-0.22,0.34
7.937,0.05,0.01,0.03,0.06
7.947,0.29,0.04,-0.08,0.30
7.957,0.36,0.11,0.05,0.38
7.967,0.48,0.18,-0.05,0.52
7.977,0.14,0.19,-0.23,0.32
7.987,-0.17,-0.09,0.03,0.19
7.997,-0.23,-0.30,0.29,0.47
8.007,-0.48,0.19,0.02,0.52
8.018,-0.29,0.46,-0.07,0.55
8.028,0.09,0.26,-0.04,0.28
8.038,0.05,-0.27,-0.22,0.35
8.048,0.20,-0.55,-0.24,0.63
8.058,0.09,-0.37,0.10,0.40
8.068,-0.03,0.03,-0.28,0.29
8.078,0.18,0.19,0.06,0.27
8.088,0.60,0.18,0.15,0.64
8.098,0.42,0.24,-0.21,0.53
8.108,0.23,0.03,-0.22,0.32
8.118,-0.14,-0.06,0.10,0.18
8.128,-0.32,-0.22,0.23,0.46
8.139,-0.51,0.17,0.04,0.54
8.149,-0.22,0.39,-0.08,0.46
8.159,-0.02,0.25,-0.11,0.28
8.169,0.07,-0.12,-0.18,0.23
8.179,0.17,-0.58,-0.07,0.60
8.189,-0.04,-0.36,-0.24,0.44
8.199,0.29,0.00,-0.10,0.30
8.209,0.31,0.33,0.12,0.47
8.219,0.54,0.28,0.01,0.61
8.229,0.28,0.05,-0.22,0.36
8.239,-0.04,-0.09,-0.03,0.11
8.249,-0.25,-0.08,-0.05,0.27
8.260,-0.29,-0.06,0.23,0.37
8.270,-0.21,0.17,0.19,0.33
8.280,-0.21,0.45,-0.15,0.52
8.290,-0.02,0.14,-0.05,0.15
8.300,0.03,-0.12,-0.21,0.24
8.310,0.01,-0.40,-0.08,0.41
8.320,0.15,-0.32,-0.20,0.41
8.330,0.24,-0.10,-0.03,0.26
8.340,0.30,0.35,-0.03,0.46
8.350,0.44,0.38,0.02,0.58
8.360,0.35,-0.03,-0.07,0.36
8.370,-0.09,-0.10,-0.17,0.22
8.381,-0.21,-0.22,0.03,0.31
8.391,-0.29,0.03,0.24,0.38
8.401,-0.24,0.21,0.20,0.38
8.411,-0.27,0.37,-0.25,0.52
8.421,-0.03,0.10,-0.02,0.10
8.431,0.08,-0.18,-0.18,0.27
8.441,0.08,-0.29,-0.17,0.34
8.451,0.28,-0.44,0.06,0.53
8.461,0.22,-0.13,-0.34,0.42
8.471,0.29,0.21,0.08,0.36
8.481,0.39,0.47,0.08,0.61
8.492,0.11,0.24,-0.15,0.30
8.502,0.06,-0.17,-0.24,0.30
8.512,-0.16,-0.17,0.09,0.25
8.522,-0.15,-0.04,0.11,0.19
8.532,-0.34,0.29,0.21,0.49
8.542,-0.25,0.33,-0.03,0.41
8.552,-0.07,-0.01,-0.23,0.24
8.562,0.09,-0.30,-0.06,0.32
8.572,0.12,-0.27,-0.13,0.32
8.582,0.10,-0.20,-0.24,0.33
8.592,0.18,-0.18,0.10,0.27
8.602,0.32,0.11,-0.06,0.34
8.612,0.37,0.41,-0.01,0.56
8.623,0.49,0.38,-0.07,0.62
8.633,0.03,-0.15,-0.08,0.17
8.643,-0.29,-0.30,-0.25,0.49
8.653,-0.30,-0.20,0.40,0.54
8.663,-0.32,0.42,0.10,0.53
8.673,-0.26,0.47,-0.08,0.55
8.683,-0.01,-0.06,-0.14,0.15
8.693,0.01,-0.30,-0.16,0.35
8.703,0.23,-0.35,-0.02,0.42
8.713,0.09,-0.09,-0.19,0.23
8.723,0.16,-0.21,0.02,0.26
8.734,0.31,0.04,-0.13,0.34
8.744,0.31,0.25,0.26,0.48
8.754,0.45,0.37,-0.46,0.74
8.764,0.05,0.12,0.28,0.31
8.774,-0.31,-0.14,-0.10,0.36
8.784,-0.35,-0.19,0.10,0.42
8.794,-0.24,0.23,0.17,0.37
8.804,-0.24,0.49,-0.12,0.56
8.814,0.13,-0.11,-0.02,0.17
8.824,-0.02,-0.37,-0.33,0.50
8.834,0.13,-0.34,-0.05,0.37
8.844,0.07,-0.09,-0.11,0.16
8.855,0.10,-0.08,-0.09,0.16
8.865,0.38,-0.02,-0.04,0.38
8.875,0.36,0.23,0.09,0.44
8.885,0.53,0.23,-0.22,0.62
8.895,0.09,0.13,-0.08,0.18
8.905,-0.40,0.11,-0.06,0.42
8.915,-0.49,-0.02,0.36,0.60
8.925,-0.33,0.04,0.01,0.33
8.935,-0.20,0.33,-0.19,0.43
8.945,0.05,0.07,-0.06,0.11
8.955,0.23,-0.44,-0.10,0.51
8.965,0.16,-0.43,-0.29,0.54
8.976,-0.14,-0.12,-0.04,0.19
8.986,0.19,-0.01,-0.11,0.22
8.996,0.38,0.02,-0.02,0.39
9.006,0.45,0.18,0.01,0.49
9.016,0.47,0.25,-0.11,0.54
9.026,0.03,0.16,-0.14,0.21
9.036,-0.38,0.01,-0.02,0.38
9.046,-0.33,-0.12,0.35,0.50
9.056,-0.39,0.16,0.01,0.42
9.066,-0.13,0.30,-0.11,0.34
9.076,0.11,0.05,-0.12,0.17
9.086,0.07,-0.41,-0.07,0.42
9.097,0.12,-0.43,-0.25,0.51
9.107,-0.00,-0.21,-0.12,0.24
9.117,0.17,0.04,-0.05,0.18
9.127,0.31,0.18,-0.01,0.36
9.137,0.54,0.06,0.18,0.57
9.147,0.40,0.20,-0.28,0.53
9.157,-0.00,0.08,-0.14,0.16
9.167,-0.37,0.06,0.06,0.38
9.177,-0.31,-0.09,0.32,0.46
9.187,-0.53,0.19,-0.17,0.59
9.198,-0.15,0.29,-0.04,0.33
9.208,0.14,-0.02,-0.11,0.17
9.218,0.11,-0.22,-0.32,0.40
9.228,0.21,-0.47,0.00,0.51
9.238,0.11,-0.25,-0.24,0.36
9.248,0.18,-0.02,0.02,0.18
9.258,0.41,0.26,-0.07,0.49
9.268,0.51,0.19,0.12,0.55
9.278,0.23,0.12,-0.23,0.35
9.288,-0.15,0.01,-0.07,0.16
9.298,-0.40,0.06,0.05,0.41
9.308,-0.31,0.07,0.36,0.48
9.318,-0.27,0.25,-0.11,0.38
9.329,-0.08,0.21,-0.21,0.30
9.339,0.08,-0.14,0.02,0.16
9.349,0.05,-0.34,-0.29,0.45
9.359,0.18,-0.47,-0.04,0.51
9.369,0.07,-0.16,-0.20,0.27
9.379,0.20,0.03,-0.00,0.20
9.389,0.38,0.37,0.04,0.54
9.399,0.46,0.27,0.01,0.53
9.409,0.23,0.06,-0.23,0.33
9.419,-0.21,-0.05,0.04,0.22
9.429,-0.34,0.02,0.00,0.34
9.439,-0.32,0.13,0.43,0.55
9.450,-0.31,0.31,-0.07,0.44
9.460,-0.13,0.12,-0.37,0.41
9.470,0.19,-0.26,0.18,0.37
9.480,0.08,-0.29,-0.33,0.45
9.490,0.15,-0.39,-0.12,0.44
9.500,0.17,-0.24,-0.07,0.30
9.510,0.25,0.03,-0.05,0.26
9.520,0.42,0.28,0.15,0.53
9.530,0.49,0.31,-0.09,0.58
9.540,-0.11,0.25,-0.20,0.34
9.550,-0.11,-0.15,0.05,0.19
9.561,-0.38,-0.07,0.16,0.42
9.571,-0.31,0.36,0.10,0.48
9.581,-0.22,0.29,0.04,0.37
9.591,0.07,-0.10,-0.23,0.26
9.601,0.08,-0.37,-0.18,0.42
9.611,0.15,-0.27,-0.06,0.31
9.621,0.11,-0.17,-0.14,0.24
9.631,-0.04,-0.16,-0.07,0.18
9.641,0.08,0.05,-0.28,0.29
9.651,0.85,0.37,0.01,0.93
9.661,0.49,0.18,0.30,0.60
9.671,-0.03,-0.12,-0.77,0.78
9.681,-0.36,-0.11,0.23,0.44
9.692,-0.48,0.07,0.46,0.67
9.702,-0.36,0.48,-0.19,0.63
9.712,-0.21,0.32,0.09,0.39
9.722,0.15,-0.13,-0.31,0.37
9.732,0.08,-0.43,-0.07,0.44
9.742,0.29,-0.33,-0.15,0.46
9.752,0.02,-0.09,-0.24,0.26
9.762,0.17,-0.20,-0.03,0.26
9.772,0.28,0.03,-0.03,0.29
9.782,0.45,0.23,0.11,0.52
9.792,0.40,0.32,-0.22,0.56
9.802,-0.03,0.17,-0.12,0.21
9.813,-0.44,-0.03,0.19,0.48
9.823,-0.47,-0.02,0.17,0.50
9.833,-0.33,0.40,-0.11,0.53
9.843,-0.05,0.30,-0.03,0.30
9.853,0.26,-0.33,-0.03,0.42
9.863,0.05,-0.41,-0.41,0.58
9.873,0.15,-0.26,-0.04,0.31
9.883,0.01,-0.05,-0.00,0.05
9.893,0.05,-0.15,-0.21,0.26
9.903,0.27,0.10,0.00,0.28
9.914,0.59,0.24,0.10,0.65
9.924,0.41,0.36,-0.27,0.61
9.934,-0.06,0.13,-0.05,0.16
9.944,-0.50,-0.14,0.14,0.54
9.954,-0.42,-0.06,0.23,0.49
9.964,-0.37,0.41,-0.14,0.57
9.974,-0.13,0.36,-0.06,0.38
9.984,0.26,-0.20,-0.09,0.34
9.994,0.15,-0.46,-0.22,0.53
10.004,0.24,-0.37,-0.13,0.46
10.014,0.07,-0.06,-0.12,0.16
10.024,0.08,0.02,-0.06,0.10
10.034,0.34,0.10,0.10,0.37
10.045,0.44,0.21,-0.03,0.49
10.055,0.28,0.25,-0.32,0.49
10.065,-0.10,0.13,0.03,0.17
10.075,-0.31,-0.22,0.20,0.43
10.085,-0.47,-0.05,0.05,0.47
10.095,-0.32,0.34,-0.07,0.47
10.105,0.02,0.33,-0.01,0.34
10.115,0.08,-0.04,-0.18,0.20
10.125,0.21,-0.56,-0.18,0.63
10.135,0.09,-0.43,-0.20,0.48
10.145,0.14,-0.11,-0.00,0.18
10.156,0.08,0.17,-0.17,0.25
10.166,0.45,0.13,0.28,0.55
10.176,0.42,0.31,-0.12,0.54
10.186,0.16,0.21,-0.14,0.30
10.196,0.03,-0.03,0.01,0.04
10.206,-0.42,-0.11,0.03,0.44
10.216,-0.16,-0.16,0.45,0.51
10.226,-0.59,0.34,-0.30,0.75
10.236,0.06,0.28,0.01,0.28
10.246,0.06,-0.02,-0.03,0.08
10.256,0.21,-0.40,-0.26,0.52
10.266,0.15,-0.45,-0.00,0.48
10.277,0.01,-0.14,-0.26,0.29
10.287,0.44,0.13,0.03,0.46
10.297,0.41,0.23,0.26,0.53
10.307,0.20,0.32,-0.57,0.68
10.317,0.34,-0.01,0.11,0.36
10.327,-0.29,-0.01,-0.12,0.32
10.337,-0.39,-0.02,-0.02,0.39
10.347,-0.17,-0.09,0.43,0.47
10.357,-0.28,0.39,-0.39,0.62
10.367,-0.02,0.26,0.04,0.26
10.377,0.13,-0.09,-0.02,0.16
10.387,0.02,-0.32,-0.34,0.46
10.397,0.15,-0.42,-0.04,0.45
10.408,0.21,-0.17,-0.03,0.27
10.418,0.28,0.21,-0.14,0.38
10.428,0.35,0.42,0.17,0.57
10.438,0.43,0.16,-0.11,0.47
10.448,0.04,-0.04,-0.18,0.19
10.458,-0.15,-0.21,-0.14,0.29
10.468,-0.28,-0.06,0.22,0.36
10.478,-0.33,0.20,0.26,0.46
10.488,-0.32,0.27,-0.15,0.44
10.498,-0.06,0.16,-0.26,0.31
10.508,0.09,-0.17,0.06,0.21
10.519,0.21,-0.20,-0.24,0.38
10.529,0.23,-0.33,-0.13,0.42
10.539,0.15,-0.20,-0.17,0.30
10.549,0.42,0.20,0.01,0.47
10.559,0.22,0.27,0.25,0.43
10.569,0.20,0.23,-0.54,0.62
10.579,0.08,-0.12,0.20,0.25
10.589,-0.21,-0.05,-0.13,0.25
10.599,-0.30,0.01,0.18,0.35
10.609,-0.22,0.31,0.28,0.48
10.620,-0.25,0.23,-0.14,0.36
10.629,-0.00,-0.07,-0.17,0.19
10.640,0.15,-0.28,-0.05,0.33
10.650,0.06,-0.24,-0.16,0.29
10.660,0.05,-0.01,-0.29,0.30
10.670,0.21,-0.31,0.22,0.44
10.680,0.17,-0.04,-0.16,0.24
10.690,0.52,0.34,-0.32,0.70
10.700,0.41,0.40,0.38,0.69
10.710,0.32,0.08,-0.29,0.44
10.720,-0.40,-0.18,-0.13,0.45
10.730,-0.46,-0.17,0.18,0.53
10.741,-0.26,0.12,0.19,0.35
10.751,-0.33,0.48,-0.08,0.59
10.761,0.12,0.06,-0.06,0.15
10.771,0.00,-0.30,-0.27,0.41
10.781,0.19,-0.30,-0.20,0.41
10.791,0.08,-0.13,0.07,0.17
10.801,0.16,-0.19,-0.20,0.32
10.811,0.20,-0.13,-0.05,0.24
10.821,0.52,0.30,-0.15,0.62
10.831,0.35,0.22,0.20,0.46
10.841,0.18,0.18,-0.43,0.50
10.851,-0.39,0.10,0.11,0.42
10.861,-0.46,-0.06,0.22,0.51
10.872,-0.25,0.01,-0.01,0.25
10.882,-0.14,0.36,0.08,0.40
10.892,0.21,0.12,-0.16,0.29
10.902,-0.00,-0.35,-0.25,0.43
10.912,0.10,-0.42,-0.13,0.45
10.922,0.03,-0.13,-0.13,0.19
10.932,0.02,-0.03,-0.13,0.13
10.942,0.30,-0.13,0.01,0.33
10.952,0.44,0.27,-0.28,0.59
10.962,0.51,0.27,0.25,0.63
10.972,0.26,0.18,-0.34,0.47
10.983,-0.35,0.02,-0.06,0.36
10.993,-0.51,-0.02,0.24,0.57
11.003,-0.39,0.03,0.14,0.42
11.013,-0.17,0.30,-0.15,0.38
11.023,0.06,0.23,-0.12,0.26
11.033,0.24,-0.31,-0.03,0.39
11.043,0.04,-0.47,-0.23,0.53
11.053,0.08,-0.23,-0.26,0.36
11.063,0.11,0.07,0.01,0.13
11.073,0.30,-0.03,-0.04,0.30
11.083,0.40,0.02,-0.02,0.40
11.093,0.46,0.25,-0.10,0.53
11.103,0.17,0.16,-0.20,0.30
11.113,-0.34,0.19,-0.06,0.40
11.124,-0.37,-0.05,0.38,0.54
11.134,-0.34,0.03,-0.17,0.38
11.144,-0.32,0.25,0.10,0.42
11.154,0.19,0.10,-0.20,0.29
11.164,0.06,-0.28,-0.16,0.33
11.174,0.22,-0.49,-0.08,0.54
11.184,0.07,-0.30,-0.24,0.39
11.194,0.00,-0.04,-0.09,0.10
11.204,0.30,0.18,-0.03,0.35
11.214,0.46,0.09,0.19,0.50
11.224,0.46,0.24,-0.28,0.59
11.235,0.22,0.10,-0.02,0.25
11.245,-0.13,0.07,-0.26,0.30
11.255,-0.52,-0.07,0.46,0.70
11.265,-0.39,0.05,0.09,0.40
11.275,-0.48,0.41,-0.24,0.68
11.285,0.11,0.08,0.08,0.15
11.295,0.24,-0.19,-0.41,0.51
11.305,0.20,-0.54,0.07,0.58
11.315,0.13,-0.31,-0.50,0.60
11.325,0.07,-0.17,0.34,0.39
11.336,0.30,0.26,-0.47,0.61
11.346,0.44,0.18,0.41,0.63
11.356,0.49,0.22,-0.43,0.68
11.366,0.00,0.06,-0.08,0.10
11.376,-0.20,0.01,0.05,0.20
11.386,-0.58,0.14,0.24,0.64
11.396,-0.27,0.08,0.21,0.35
11.406,-0.28,0.28,-0.26,0.47
11.416,0.13,-0.03,-0.08,0.16
11.426,0.16,-0.26,-0.15,0.34
11.436,0.13,-0.39,-0.12,0.43
11.446,0.02,-0.25,-0.21,0.33
11.456,0.10,-0.10,-0.03,0.15
11.466,0.30,0.28,-0.02,0.41
11.477,0.51,0.32,0.11,0.61
11.487,0.39,0.09,-0.18,0.44
11.497,-0.00,-0.04,-0.22,0.22
11.507,-0.28,-0.05,0.10,0.30
11.517,-0.42,0.20,0.29,0.55
11.527,-0.47,0.19,0.12,0.52
11.537,-0.22,0.19,-0.40,0.50
11.547,0.22,-0.14,0.00,0.26
11.557,0.18,-0.17,-0.16,0.29
11.567,0.18,-0.30,-0.19,0.39
11.578,0.11,-0.34,-0.15,0.39
11.587,0.09,-0.13,-0.10,0.19
11.598,0.40,0.27,0.03,0.49
11.608,0.57,0.31,0.03,0.65
11.618,0.24,0.14,-0.22,0.36
11.628,-0.21,0.04,-0.14,0.26
11.638,-0.48,0.02,0.20,0.53
11.648,-0.36,0.19,0.20,0.45
11.658,-0.21,0.28,-0.02,0.35
11.668,0.06,-0.05,-0.12,0.14
11.678,0.08,-0.39,-0.20,0.45
11.688,0.14,-0.28,-0.16,0.35
11.699,-0.00,-0.04,-0.14,0.15
11.709,0.09,-0.21,-0.06,0.23
11.719,0.23,-0.12,-0.20,0.33
11.729,0.43,0.13,0.21,0.49
11.739,0.52,0.36,-0.14,0.65
11.749,0.27,0.17,-0.13,0.34
11.759,-0.23,0.01,-0.08,0.25
11.769,-0.42,-0.04,0.13,0.44
11.779,-0.39,0.12,0.34,0.54
11.789,-0.28,0.39,-0.31,0.57
11.799,-0.06,-0.02,0.01,0.06
11.809,0.16,-0.23,-0.31,0.42
11.820,0.14,-0.30,-0.04,0.33
11.829,0.16,-0.11,-0.17,0.26
11.840,0.08,-0.19,-0.08,0.23
11.850,0.22,-0.06,-0.15,0.27
11.860,0.50,0.15,0.18,0.55
11.870,0.52,0.33,-0.15,0.63
11.880,0.13,0.09,-0.14,0.21
11.890,-0.45,0.06,-0.06,0.46
11.900,-0.46,0.07,0.37,0.59
11.910,-0.38,0.18,0.09,0.43
11.920,-0.18,0.40,-0.28,0.52
11.930,0.26,-0.19,0.06,0.32
11.941,0.16,-0.45,-0.27,0.55
11.951,0.10,-0.38,-0.17,0.43
11.961,-0.09,0.02,-0.08,0.12
11.971,0.04,0.04,-0.11,0.12
11.981,0.29,-0.05,-0.02,0.30
11.991,0.49,0.16,0.03,0.51
12.001,0.53,0.29,-0.11,0.61
12.011,0.06,0.22,-0.19,0.29
12.021,-0.29,-0.09,0.14,0.33
12.031,-0.53,0.03,0.16,0.55
12.041,-0.39,0.24,-0.10,0.47
12.051,-0.15,0.36,-0.06,0.40
12.062,0.12,-0.17,-0.03,0.21
12.072,0.22,-0.44,-0.42,0.65
12.082,0.11,-0.33,-0.04,0.35
12.092,0.13,-0.06,-0.09,0.17
12.102,0.02,0.12,-0.26,0.28
12.112,0.35,-0.01,0.16,0.38
12.122,0.42,0.13,-0.02,0.44
12.132,0.38,0.15,-0.12,0.43
12.142,0.10,0.21,-0.21,0.31
12.152,-0.30,-0.07,0.14,0.34
12.162,-0.37,-0.13,0.33,0.51
12.172,-0.49,0.26,-0.19,0.59
12.183,-0.06,0.38,-0.08,0.39
12.193,0.16,0.01,0.05,0.16
12.203,0.16,-0.43,-0.35,0.57
12.213,0.02,-0.47,-0.17,0.50
12.223,0.11,-0.18,-0.05,0.21
12.233,0.03,0.03,0.15,0.15
12.243,0.28,0.31,-0.53,0.68
12.253,0.79,0.16,0.29,0.86
12.263,0.27,0.23,-0.30,0.47
12.273,-0.05,-0.07,0.04,0.10
12.283,-0.39,-0.09,-0.11,0.42
12.294,-0.31,-0.14,0.53,0.63
12.304,-0.42,0.25,-0.11,0.50
12.314,-0.12,0.37,-0.14,0.41
12.324,0.10,0.11,0.06,0.16
12.334,0.11,-0.36,-0.22,0.43
12.344,0.11,-0.46,-0.20,0.51
12.354,0.07,-0.24,0.03,0.25
12.364,0.15,-0.01,0.09,0.18
12.374,0.49,0.45,-0.60,0.90
12.384,0.43,0.19,0.40,0.62
12.394,0.16,0.11,-0.40,0.44
12.404,-0.14,-0.15,0.07,0.21
12.415,-0.32,-0.06,-0.14,0.35
12.425,-0.39,-0.02,0.39,0.55
12.435,-0.17,0.24,-0.03,0.29
12.445,-0.10,0.32,-0.20,0.39
12.455,0.16,-0.03,-0.05,0.17
12.465,0.03,-0.28,-0.21,0.35
12.475,0.14,-0.44,-0.13,0.48
12.485,0.07,-0.23,-0.04,0.25
12.495,0.19,0.05,0.07,0.21
12.505,0.45,0.58,-0.65,0.99
12.515,0.39,0.25,0.59,0.75
12.525,0.27,0.07,-0.52,0.59
12.536,-0.19,-0.24,0.00,0.30
12.546,-0.23,-0.19,0.05,0.30
12.556,-0.39,0.18,0.32,0.53
12.566,-0.26,0.22,0.08,0.35
12.576,-0.11,0.35,-0.42,0.56
12.586,0.10,-0.03,0.24,0.26
12.596,0.13,-0.20,-0.32,0.40
12.606,0.12,-0.46,-0.11,0.49
12.616,0.26,-0.33,-0.08,0.43
12.626,0.18,0.00,0.06,0.19
12.636,0.33,0.45,-0.53,0.78
12.647,0.42,0.30,0.52,0.73
12.657,0.10,0.06,-0.44,0.46
12.667,-0.17,-0.20,-0.23,0.35
12.677,-0.21,-0.17,0.34,0.44
12.687,-0.32,0.26,0.07,0.42
12.697,-0.29,0.32,0.06,0.44
12.707,-0.08,0.13,-0.13,0.20
12.717,0.00,-0.16,-0.16,0.23
12.727,0.18,-0.30,-0.11,0.37
12.737,0.11,-0.19,-0.21,0.31
12.747,0.04,-0.24,-0.10,0.26
12.757,0.08,-0.10,0.00,0.13
12.768,0.41,0.37,-0.29,0.62
12.777,0.53,0.39,0.10,0.67
12.788,0.44,0.25,-0.17,0.53
12.798,-0.14,-0.26,0.11,0.31
12.808,-0.49,-0.25,-0.30,0.62
12.818,-0.45,-0.02,0.55,0.71
12.828,-0.30,0.59,-0.22,0.70
12.838,0.01,0.26,0.03,0.27
12.848,0.04,-0.20,-0.17,0.27
12.858,0.18,-0.40,-0.30,0.53
12.868,0.10,-0.19,-0.03,0.22
12.878,0.13,-0.18,-0.14,0.27
12.889,0.16,-0.22,0.04,0.27
12.899,0.44,0.26,-0.40,0.64
12.909,0.40,0.23,0.39,0.61
12.919,0.34,0.17,-0.52,0.64
12.929,-0.17,-0.09,0.23,0.30
12.939,-0.46,0.18,-0.15,0.51
12.949,-0.62,0.33,0.38,0.79
12.959,-0.08,0.21,-0.03,0.23
12.969,-0.08,0.10,-0.29,0.31
12.979,0.34,-0.35,0.04,0.49
12.989,0.12,-0.46,-0.07,0.48
13.000,-0.09,-0.18,-0.39,0.44
13.009,0.02,0.02,-0.01,0.03
13.020,0.22,-0.09,0.05,0.24
13.030,0.36,0.09,-0.20,0.42
13.040,0.58,0.17,0.18,0.63
13.050,0.33,0.23,-0.35,0.53
13.060,-0.13,0.04,0.03,0.14
13.070,-0.47,0.13,0.11,0.50
13.080,-0.54,0.13,0.19,0.59
13.090,-0.27,0.20,0.06,0.34
13.100,-0.02,0.24,-0.23,0.33
13.110,0.19,-0.20,-0.09,0.29
13.120,0.14,-0.41,-0.19,0.48
13.130,0.19,-0.26,-0.13,0.34
13.141,0.13,-0.01,-0.15,0.20
13.151,0.15,0.06,-0.01,0.16
13.161,0.11,0.05,0.24,0.26
13.171,0.38,0.06,-0.24,0.45
13.181,0.68,0.05,-0.26,0.73
13.191,-0.04,0.04,0.15,0.16
13.201,-0.56,0.06,-0.13,0.57
13.211,-0.43,-0.01,0.34,0.55
13.221,-0.40,0.33,-0.03,0.52
13.232,0.00,0.36,-0.34,0.50
13.242,0.20,-0.23,0.04,0.31
13.251,0.23,-0.56,-0.31,0.68
13.262,0.07,-0.35,-0.08,0.36
13.272,0.09,-0.01,-0.14,0.17
13.282,0.11,0.12,-0.12,0.20
13.292,0.38,0.01,0.19,0.42
13.302,0.44,0.14,-0.16,0.49
13.312,0.36,0.19,-0.20,0.45
13.322,-0.12,0.09,-0.01,0.15
13.332,-0.42,-0.05,0.07,0.43
13.342,-0.48,0.03,0.23,0.54
13.352,-0.40,0.25,-0.05,0.48
13.363,0.00,0.17,-0.18,0.24
13.373,0.14,-0.06,-0.19,0.24
13.383,0.25,-0.47,0.02,0.53
13.393,0.20,-0.35,-0.35,0.54
13.403,0.39,0.11,0.12,0.42
13.413,0.45,0.39,-0.02,0.59
13.423,0.40,0.22,-0.17,0.49
13.433,0.14,-0.00,-0.19,0.23
13.443,-0.23,-0.11,-0.15,0.30
13.453,-0.19,-0.12,-0.27,0.35
13.463,-0.43,0.07,0.57,0.71
13.473,-0.29,-0.11,0.25,0.40
13.484,-0.26,0.21,-0.56,0.65
13.494,-0.15,0.18,0.21,0.31
13.504,0.14,0.06,-0.19,0.25
13.514,0.18,-0.27,-0.20,0.38
13.524,0.24,-0.46,-0.13,0.53
13.534,0.00,-0.22,-0.13,0.26
13.544,0.16,0.01,-0.06,0.17
13.554,0.45,0.31,0.10,0.56
13.564,0.50,0.27,-0.04,0.57
13.574,0.25,0.06,-0.18,0.31
13.584,-0.11,-0.05,-0.09,0.15
13.594,-0.46,0.02,0.24,0.52
13.605,-0.50,0.22,0.20,0.58
13.615,-0.36,0.30,-0.14,0.49
13.625,0.01,-0.02,-0.22,0.22
13.635,0.23,-0.16,-0.08,0.29
13.645,0.26,-0.19,-0.15,0.36
13.655,0.30,-0.29,-0.03,0.42
13.665,0.28,0.02,-0.06,0.29
13.675,0.32,0.26,-0.06,0.41
13.685,0.33,0.29,0.02,0.44
13.695,0.14,-0.07,-0.20,0.25
13.705,-0.07,-0.22,-0.22,0.32
13.715,-0.25,-0.22,0.18,0.38
13.726,-0.38,-0.03,0.27,0.47
13.736,-0.67,0.43,-0.02,0.80
13.746,-0.19,0.33,-0.20,0.43
13.756,0.09,-0.07,-0.03,0.12
13.766,0.34,-0.37,-0.15,0.52
13.776,0.07,-0.23,-0.29,0.38
13.786,0.22,-0.24,-0.10,0.34
13.796,0.04,-0.18,-0.05,0.19
13.806,0.21,0.09,-0.20,0.31
13.816,0.34,0.35,0.31,0.58
13.826,0.64,0.26,-0.33,0.76
13.836,-0.03,0.08,-0.00,0.08
13.847,-0.21,-0.00,0.06,0.22
13.857,-0.60,0.04,0.33,0.69
13.867,-0.39,0.41,-0.23,0.61
13.877,-0.04,0.15,0.05,0.17
13.887,0.05,-0.15,-0.19,0.24
13.897,0.30,-0.37,-0.28,0.55
13.907,0.17,-0.15,0.00,0.22
13.917,-0.02,-0.05,-0.12,0.14
13.927,-0.13,-0.06,-0.21,0.25
13.937,0.69,0.07,0.30,0.76
13.947,0.88,0.10,0.16,0.90
13.958,0.18,0.23,-0.67,0.73
13.968,-0.41,-0.22,0.30,0.56
13.978,-0.70,-0.16,0.03,0.72
13.988,-0.44,0.30,0.10,0.54
13.998,-0.12,0.58,0.07,0.59
14.008,0.25,0.11,-0.26,0.38
14.018,0.11,-0.36,-0.22,0.43
14.028,0.21,-0.47,-0.03,0.51
14.038,-0.08,-0.14,-0.23,0.28
14.048,0.01,0.10,-0.21,0.23
14.058,0.23,-0.01,0.05,0.24
14.069,0.34,0.21,0.03,0.40
14.078,0.56,0.19,-0.10,0.60
14.089,0.26,0.27,-0.17,0.41
14.099,-0.30,-0.06,-0.01,0.30
14.109,-0.48,-0.15,0.23,0.56
14.119,-0.49,0.17,-0.01,0.52
14.129,-0.19,0.44,-0.12,0.50
14.139,0.12,0.11,-0.03,0.16
14.149,0.23,-0.40,-0.26,0.53
14.159,0.07,-0.48,-0.15,0.51
14.169,0.20,-0.23,-0.11,0.33
14.179,-0.01,0.03,-0.08,0.09
14.190,0.19,0.05,-0.09,0.22
14.200,0.35,0.19,0.09,0.41
14.210,0.47,0.21,-0.10,0.53
14.220,0.18,0.23,-0.23,0.37
14.230,-0.29,-0.04,0.12,0.31
14.240,-0.36,-0.17,0.19,0.44
14.250,-0.44,0.09,0.07,0.45
14.260,-0.15,0.42,-0.12,0.46
14.270,0.03,0.28,-0.06,0.29
14.280,0.24,-0.29,-0.10,0.39
14.290,0.16,-0.51,-0.29,0.61
14.301,0.01,-0.37,-0.06,0.37
14.311,0.07,0.08,-0.14,0.18
14.320,0.18,0.27,0.07,0.33
14.331,0.46,0.17,0.11,0.51
14.341,0.43,0.25,-0.31,0.59
14.351,0.14,0.03,-0.06,0.16
14.361,-0.27,-0.13,0.01,0.30
14.371,-0.34,-0.31,0.18,0.49
14.381,-0.43,0.17,-0.01,0.46
14.391,-0.25,0.47,-0.05,0.54
14.401,0.11,0.11,-0.03,0.16
14.411,0.06,-0.27,-0.32,0.42
14.421,0.24,-0.54,-0.02,0.59
14.432,0.14,-0.19,-0.29,0.38
14.442,0.19,0.06,0.00,0.20
14.452,0.30,0.34,-0.02,0.46
14.462,0.37,0.27,0.03,0.46
14.472,0.26,0.11,-0.24,0.37
14.482,0.01,-0.04,-0.12,0.13
14.492,-0.29,-0.07,-0.04,0.30
14.502,-0.34,-0.09,0.26,0.43
14.512,-0.18,0.14,-0.03,0.23
14.522,-0.32,0.40,0.09,0.52
14.532,0.18,0.11,-0.27,0.34
14.542,0.04,-0.21,-0.16,0.27
14.553,0.17,-0.48,-0.06,0.51
14.563,0.07,-0.26,-0.21,0.35
14.573,0.19,-0.03,-0.02,0.19
14.583,0.27,0.34,-0.02,0.44
14.593,0.41,0.37,0.08,0.56
14.603,0.35,0.07,-0.28,0.45
14.613,-0.08,-0.05,-0.03,0.10
14.623,-0.13,-0.20,-0.04,0.25
14.633,-0.40,0.04,0.27,0.48
14.643,-0.36,0.22,0.08,0.43
14.653,-0.13,0.32,-0.24,0.42
14.663,0.05,0.10,-0.01,0.11
14.674,0.09,-0.14,-0.17,0.24
14.684,0.15,-0.34,-0.16,0.41
14.694,0.22,-0.39,-0.10,0.46
14.704,0.11,-0.17,0.09,0.22
14.714,0.31,0.27,-0.31,0.51
14.724,0.39,0.44,0.04,0.59
14.734,0.14,0.20,-0.02,0.24
14.744,-0.03,-0.09,-0.23,0.25
14.754,-0.29,-0.18,0.04,0.34
14.764,-0.30,0.06,0.29,0.42
14.774,-0.33,0.25,0.05,0.41
14.784,-0.07,0.19,-0.14,0.25
14.795,0.08,-0.08,-0.14,0.18
14.805,0.15,-0.26,-0.24,0.38
14.815,0.10,-0.20,-0.12,0.25
14.825,0.02,-0.27,0.01,0.27
14.835,0.07,-0.27,0.05,0.28
14.845,0.36,0.14,-0.52,0.64
14.855,0.59,0.41,0.12,0.72
14.865,0.48,0.37,-0.14,0.62
14.875,-0.04,-0.01,-0.02,0.04
14.885,-0.57,0.19,-0.18,0.62
14.895,-0.59,0.19,0.53,0.81
14.906,-0.20,0.03,-0.00,0.20
14.916,0.02,-0.04,-0.28,0.28
14.926,0.21,-0.24,-0.03,0.32
14.936,0.10,-0.26,-0.12,0.30
14.946,-0.02,-0.14,-0.17,0.22
14.956,0.01,-0.05,-0.11,0.12
14.966,0.17,-0.27,0.08,0.33
14.976,0.36,0.04,-0.35,0.50
14.986,0.60,0.33,-0.08,0.69
14.996,0.30,0.15,0.12,0.35
15.006,0.01,0.07,-0.18,0.19
15.016,-0.55,0.10,-0.06,0.56
15.027,-0.64,0.49,0.28,0.85
15.037,-0.23,0.39,0.06,0.46
15.047,0.03,-0.03,-0.06,0.07
15.057,0.25,-0.48,-0.15,0.56
15.067,0.22,-0.43,-0.27,0.56
15.077,0.08,-0.26,0.04,0.28
15.087,-0.10,0.05,-0.23,0.26
15.097,-0.02,-0.00,-0.11,0.11
15.107,0.44,-0.05,0.06,0.44
15.117,0.41,0.17,0.07,0.45
15.127,0.51,0.21,-0.39,0.68
15.138,0.02,0.07,0.04,0.08
15.148,-0.43,0.05,-0.01,0.43
15.158,-0.49,0.09,0.20,0.53
15.168,-0.37,0.19,0.11,0.43
15.178,-0.10,0.30,-0.21,0.38
15.188,0.13,-0.08,-0.02,0.15
15.198,0.21,-0.46,-0.22,0.55
15.208,0.07,-0.36,-0.14,0.39
15.218,0.15,-0.10,-0.06,0.19
15.228,0.10,0.11,-0.19,0.24
15.238,0.32,-0.03,0.02,0.32
15.248,0.44,0.13,-0.05,0.46
15.259,0.37,0.19,-0.04,0.42
15.269,0.05,0.09,-0.27,0.29
15.279,-0.47,0.12,0.12,0.50
15.289,-0.44,0.23,0.21,0.54
15.299,-0.37,0.13,0.08,0.40
15.309,-0.06,0.19,-0.26,0.33
15.319,0.15,-0.16,-0.05,0.23
15.329,0.24,-0.61,-0.13,0.67
15.339,0.05,-0.42,-0.33,0.54
15.349,0.08,-0.08,-0.10,0.14
15.359,0.04,0.14,0.00,0.14
15.370,0.34,0.13,-0.18,0.41
15.379,0.47,0.06,0.25,0.54
15.390,0.41,0.18,-0.38,0.59
15.400,-0.02,0.09,-0.12,0.15
15.410,-0.32,0.07,0.18,0.37
15.420,-0.49,0.07,0.27,0.57
15.430,-0.46,0.27,-0.12,0.54
15.440,-0.05,0.18,0.05,0.20
15.450,0.15,0.02,-0.08,0.17
15.460,0.01,-0.34,-0.38,0.51
15.470,0.38,-0.47,0.14,0.62
15.480,-0.15,-0.27,-0.24,0.39
15.491,0.24,0.02,-0.32,0.40
