time,ax,ay,az,atotal
0.000,0.50,0.46,0.10,0.69
0.010,0.29,0.27,-0.28,0.49
0.020,-0.03,-0.18,-0.16,0.24
0.030,-0.24,-0.22,-0.07,0.33
0.041,-0.25,0.01,0.25,0.35
0.050,-0.22,0.33,0.04,0.39
0.061,-0.09,0.29,-0.07,0.32
0.071,-0.02,0.04,-0.16,0.17
0.081,0.02,-0.25,-0.13,0.29
0.091,0.03,-0.25,-0.22,0.33
0.101,0.07,-0.25,-0.16,0.31
0.111,0.19,-0.28,-0.01,0.34
0.121,0.22,0.00,-0.06,0.23
0.131,0.56,0.37,-0.19,0.69
0.141,0.43,0.37,0.07,0.57
0.151,0.22,-0.17,-0.21,0.34
0.162,-0.31,-0.34,-0.15,0.48
0.172,-0.36,-0.19,0.22,0.47
0.182,-0.27,0.43,0.15,0.54
0.192,-0.24,0.57,-0.09,0.63
0.202,0.03,-0.01,-0.06,0.07
0.212,-0.06,-0.39,-0.28,0.48
0.222,0.15,-0.31,-0.10,0.36
0.232,0.14,-0.07,-0.02,0.16
0.242,0.17,-0.22,-0.14,0.31
0.252,0.32,-0.08,0.05,0.33
0.262,0.51,0.25,-0.28,0.63
0.272,0.45,0.31,0.12,0.56
0.283,0.16,0.15,-0.17,0.28
0.293,-0.30,-0.25,-0.18,0.43
0.303,-0.44,-0.18,0.23,0.53
0.313,-0.23,0.22,0.18,0.37
0.323,-0.23,0.53,-0.18,0.60
0.333,0.09,-0.09,0.03,0.13
0.343,0.04,-0.47,-0.38,0.61
0.353,0.03,-0.36,-0.08,0.37
0.363,0.07,-0.10,-0.02,0.13
0.373,0.09,-0.04,-0.24,0.26
0.383,0.24,-0.11,0.11,0.28
0.393,0.65,0.20,-0.28,0.74
0.403,0.45,0.27,0.17,0.55
0.414,0.28,0.17,-0.22,0.40
0.424,-0.28,-0.12,-0.09,0.32
0.434,-0.45,-0.11,0.20,0.51
0.444,-0.37,0.20,0.21,0.47
0.454,-0.25,0.40,-0.15,0.50
0.464,0.04,0.15,-0.21,0.26
0.474,0.17,-0.49,-0.03,0.51
0.484,0.01,-0.46,-0.32,0.56
0.494,0.11,-0.15,-0.13,0.23
0.504,0.21,0.00,-0.04,0.22
0.514,0.27,0.02,-0.17,0.32
0.525,0.42,0.03,0.18,0.46
0.535,0.53,0.20,-0.29,0.64
0.545,0.07,0.12,-0.05,0.14
0.555,-0.20,-0.04,-0.11,0.23
0.565,-0.36,-0.17,0.24,0.47
0.575,-0.30,0.08,0.16,0.35
0.585,-0.18,0.45,-0.17,0.51
0.595,-0.00,0.17,-0.07,0.18
0.605,0.16,-0.42,-0.14,0.47
0.615,0.04,-0.44,-0.23,0.50
0.625,0.12,-0.25,-0.08,0.28
0.635,0.09,0.02,-0.16,0.19
0.646,0.33,0.17,-0.04,0.37
0.656,0.53,0.03,0.23,0.58
0.666,0.46,0.20,-0.42,0.65
0.676,0.06,0.05,0.06,0.10
0.686,-0.20,-0.05,-0.04,0.21
0.696,-0.27,-0.19,0.17,0.37
0.706,-0.41,0.17,0.18,0.48
0.716,-0.27,0.35,-0.21,0.49
0.726,0.04,0.00,-0.01,0.04
0.736,0.05,-0.20,-0.29,0.36
0.746,0.20,-0.46,-0.07,0.50
0.757,0.11,-0.25,-0.17,0.32
0.767,0.29,-0.07,-0.11,0.32
0.777,0.26,0.24,0.06,0.36
0.787,0.58,0.17,0.06,0.61
0.797,0.30,0.11,-0.36,0.48
0.807,-0.00,-0.01,-0.02,0.02
0.817,-0.30,-0.01,-0.05,0.30
0.827,-0.37,0.05,0.25,0.45
0.837,-0.26,0.15,0.15,0.34
0.847,-0.21,0.32,-0.27,0.47
0.857,0.10,-0.02,-0.07,0.13
0.867,0.13,-0.35,-0.15,0.40
0.878,0.20,-0.46,-0.20,0.54
0.888,-0.03,-0.23,-0.12,0.26
0.898,0.17,0.02,-0.15,0.23
0.908,0.46,0.37,0.12,0.60
0.918,0.56,0.24,0.01,0.61
0.928,0.29,-0.05,-0.31,0.43
0.938,-0.10,-0.15,-0.07,0.19
0.948,-0.37,-0.04,0.06,0.38
0.958,-0.35,0.18,0.32,0.51
0.968,-0.27,0.28,0.02,0.39
0.978,-0.14,0.12,-0.28,0.33
0.989,0.16,-0.22,-0.03,0.27
0.999,0.08,-0.28,-0.15,0.33
1.009,0.15,-0.32,-0.19,0.41
1.019,0.12,-0.24,-0.10,0.29
1.029,0.25,-0.03,-0.02,0.25
1.039,0.42,0.27,0.02,0.50
1.049,0.58,0.23,-0.10,0.63
1.059,0.17,0.12,-0.18,0.28
1.069,-0.32,0.05,-0.04,0.33
1.079,-0.36,-0.07,0.09,0.38
1.089,-0.38,0.21,0.19,0.48
1.099,-0.11,0.20,-0.09,0.25
1.109,0.04,-0.14,-0.18,0.23
1.120,0.12,-0.42,-0.18,0.47
1.130,0.08,-0.29,-0.15,0.33
1.140,0.05,-0.13,-0.07,0.15
1.150,0.05,-0.16,-0.21,0.27
1.160,0.21,0.02,-0.00,0.21
1.170,0.57,0.37,0.08,0.69
1.180,0.61,0.29,-0.08,0.68
1.190,0.15,0.04,-0.23,0.27
1.200,-0.28,-0.14,-0.02,0.31
1.210,-0.43,-0.11,0.32,0.55
1.220,-0.34,0.30,0.11,0.47
1.231,-0.30,0.36,-0.19,0.51
1.241,0.11,-0.14,-0.07,0.19
1.251,0.13,-0.40,-0.19,0.46
1.261,0.12,-0.33,-0.21,0.41
1.271,0.16,-0.08,-0.18,0.25
1.281,0.15,-0.22,0.07,0.28
1.291,0.26,-0.01,-0.24,0.35
1.301,0.49,0.26,0.20,0.59
1.311,0.52,0.35,-0.19,0.66
1.321,-0.02,0.21,-0.16,0.27
1.331,-0.34,-0.10,0.13,0.38
1.341,-0.41,-0.13,0.24,0.49
1.352,-0.41,0.31,-0.13,0.53
1.362,-0.04,0.28,-0.02,0.29
1.372,0.23,-0.35,-0.10,0.43
1.382,0.03,-0.45,-0.32,0.56
1.392,0.12,-0.22,-0.10,0.27
1.402,0.08,-0.05,-0.02,0.09
1.412,0.10,-0.13,-0.19,0.25
1.422,0.34,-0.00,0.05,0.34
1.432,0.56,0.27,0.03,0.62
1.442,0.51,0.34,-0.24,0.66
1.452,-0.02,0.13,0.01,0.13
1.463,-0.41,-0.14,0.10,0.45
1.473,-0.45,-0.01,0.19,0.49
1.482,-0.40,0.30,-0.03,0.50
1.493,-0.14,0.33,-0.18,0.40
1.503,0.25,-0.34,0.02,0.42
1.513,0.22,-0.54,-0.30,0.66
1.523,0.13,-0.30,-0.16,0.36
1.533,0.08,-0.02,-0.01,0.09
1.543,0.13,-0.01,-0.18,0.22
1.553,0.34,-0.06,0.06,0.35
1.563,0.50,0.25,-0.01,0.56
1.574,0.44,0.32,-0.18,0.57
1.583,-0.05,0.20,-0.16,0.26
1.594,-0.31,-0.20,0.19,0.42
1.604,-0.38,-0.12,0.21,0.45
1.614,-0.34,0.30,-0.14,0.47
1.624,-0.08,0.29,-0.00,0.30
1.634,0.07,-0.08,-0.21,0.24
1.644,0.19,-0.55,-0.16,0.60
1.654,0.03,-0.43,-0.15,0.45
1.664,0.09,-0.12,-0.11,0.19
1.674,0.17,0.07,-0.00,0.18
1.684,0.49,0.13,-0.10,0.52
1.694,0.51,0.26,0.03,0.58
1.705,0.30,0.20,-0.14,0.39
1.715,-0.11,0.03,-0.24,0.26
1.725,-0.33,-0.13,0.24,0.43
1.735,-0.30,-0.14,0.27,0.43
1.745,-0.39,0.28,-0.22,0.53
1.755,-0.01,0.33,-0.00,0.33
1.765,0.09,0.03,-0.09,0.13
1.775,0.10,-0.45,-0.25,0.52
1.785,0.09,-0.48,-0.12,0.50
1.795,0.21,-0.17,-0.11,0.29
1.805,0.29,0.09,0.10,0.32
1.816,0.46,0.31,-0.18,0.59
1.826,0.39,0.19,0.16,0.46
1.836,0.21,0.05,-0.28,0.35
1.846,-0.17,-0.09,-0.13,0.23
1.856,-0.32,-0.05,0.18,0.37
1.866,-0.26,-0.00,0.25,0.36
1.876,-0.30,0.33,-0.18,0.47
1.886,-0.05,0.24,-0.06,0.25
1.896,0.07,-0.06,-0.12,0.15
1.906,0.06,-0.32,-0.16,0.36
1.916,0.17,-0.48,-0.10,0.52
1.927,0.13,-0.19,-0.22,0.32
1.936,0.28,0.16,0.14,0.35
1.947,0.51,0.41,-0.08,0.65
1.957,0.46,0.09,-0.05,0.47
1.967,0.17,-0.03,-0.24,0.30
1.977,-0.20,-0.14,0.02,0.24
1.987,-0.20,-0.02,0.07,0.22
1.997,-0.30,0.16,0.31,0.46
2.007,-0.27,0.24,-0.13,0.38
2.017,-0.21,0.16,-0.07,0.27
2.027,0.11,-0.09,-0.13,0.20
2.038,0.08,-0.16,-0.18,0.26
2.048,0.28,-0.42,-0.07,0.51
2.058,0.16,-0.41,-0.09,0.45
2.067,0.26,0.05,-0.13,0.30
2.078,0.41,0.40,0.08,0.58
2.088,0.37,0.30,-0.09,0.48
2.098,0.19,-0.09,-0.24,0.32
2.108,-0.25,-0.19,-0.08,0.32
2.118,-0.25,-0.09,0.11,0.29
2.128,-0.26,0.28,0.23,0.45
2.138,-0.19,0.34,0.11,0.41
2.148,-0.05,0.11,-0.26,0.29
2.158,0.03,-0.25,-0.19,0.32
2.168,0.11,-0.29,0.06,0.32
2.179,0.11,-0.13,-0.30,0.34
2.189,0.09,-0.31,0.04,0.33
2.199,0.23,-0.14,0.01,0.27
2.209,0.50,0.29,-0.25,0.64
2.219,0.49,0.42,0.23,0.68
2.229,0.30,0.12,-0.35,0.47
2.239,-0.28,-0.25,-0.07,0.38
2.249,-0.35,-0.30,0.14,0.48
2.259,-0.26,0.13,0.28,0.41
2.269,-0.30,0.59,-0.09,0.67
2.279,0.05,0.07,-0.03,0.09
2.289,-0.02,-0.30,-0.32,0.43
2.300,0.12,-0.33,-0.03,0.35
2.310,0.23,-0.12,-0.16,0.31
2.320,0.05,-0.21,-0.11,0.24
2.330,0.32,-0.22,0.23,0.45
2.340,0.53,0.27,-0.58,0.83
2.350,0.38,0.25,0.48,0.66
2.360,0.31,0.22,-0.36,0.52
2.370,-0.42,-0.02,0.03,0.42
2.380,-0.46,-0.07,0.10,0.48
2.390,-0.25,0.01,0.35,0.43
2.400,-0.18,0.39,-0.24,0.49
2.411,0.12,0.04,0.01,0.12
2.421,0.23,-0.40,-0.21,0.51
2.431,-0.06,-0.36,-0.19,0.42
2.441,0.02,-0.12,-0.12,0.17
2.451,0.09,-0.01,0.03,0.10
2.461,0.26,-0.09,-0.16,0.32
2.471,0.50,0.21,-0.29,0.62
2.481,0.52,0.21,0.42,0.70
2.491,0.31,0.24,-0.46,0.61
2.501,-0.31,-0.08,0.08,0.33
2.511,-0.40,-0.13,0.04,0.42
2.521,-0.35,0.01,0.35,0.50
2.531,-0.19,0.42,-0.14,0.48
2.542,-0.08,0.31,-0.15,0.35
2.552,0.15,-0.33,-0.03,0.37
2.562,0.09,-0.47,-0.27,0.55
2.572,0.17,-0.29,-0.19,0.38
2.582,0.14,0.02,0.01,0.14
2.592,0.31,0.04,-0.13,0.34
2.602,0.35,0.02,0.11,0.37
2.612,0.47,0.25,-0.20,0.57
2.622,0.19,0.14,-0.04,0.24
2.632,-0.17,0.04,-0.15,0.23
2.642,-0.32,-0.25,0.27,0.49
2.652,-0.31,-0.04,0.12,0.34
2.663,-0.31,0.41,-0.07,0.52
2.673,0.08,0.24,0.00,0.25
2.683,0.14,-0.28,-0.26,0.41
2.693,0.14,-0.53,-0.05,0.55
2.703,0.14,-0.36,-0.13,0.40
2.713,-0.01,-0.08,-0.10,0.13
2.723,0.21,0.28,-0.17,0.39
2.733,0.47,0.12,0.32,0.58
2.743,0.44,0.15,-0.30,0.55
2.753,0.17,0.11,-0.10,0.22
2.763,-0.13,-0.02,-0.03,0.14
2.774,-0.30,-0.24,0.23,0.45
2.784,-0.36,-0.02,0.16,0.40
2.794,-0.41,0.42,-0.20,0.62
2.804,0.07,0.15,-0.01,0.17
2.814,0.15,-0.19,-0.20,0.32
2.824,0.18,-0.48,-0.17,0.54
2.834,0.17,-0.36,-0.16,0.43
2.844,0.07,-0.10,-0.12,0.17
2.854,0.35,0.23,-0.02,0.42
2.864,0.51,0.24,0.17,0.58
2.874,0.35,0.15,-0.24,0.45
2.885,-0.06,0.11,-0.13,0.18
2.895,-0.17,-0.01,-0.07,0.19
2.905,-0.34,0.02,0.31,0.46
2.915,-0.34,0.04,0.25,0.43
2.925,-0.07,0.29,-0.40,0.50
2.935,0.10,-0.09,0.20,0.24
2.945,0.17,-0.30,-0.33,0.47
2.955,-0.05,-0.44,-0.08,0.46
2.965,0.20,-0.29,-0.19,0.40
2.975,0.19,-0.04,0.01,0.19
2.985,0.28,0.30,0.02,0.41
2.995,0.47,0.34,-0.02,0.58
3.006,0.37,0.18,-0.16,0.44
3.016,-0.05,0.03,-0.11,0.12
3.026,-0.29,-0.11,-0.02,0.32
3.036,-0.30,0.05,0.20,0.36
3.046,-0.34,0.13,0.22,0.43
3.056,-0.15,0.19,-0.42,0.49
3.066,0.06,-0.10,0.00,0.12
3.076,0.23,-0.26,-0.09,0.35
3.086,0.14,-0.30,-0.26,0.42
3.096,0.20,-0.36,-0.10,0.43
3.106,0.17,-0.13,-0.08,0.23
3.116,0.34,0.29,0.03,0.45
3.127,0.50,0.36,0.05,0.62
3.137,0.24,0.27,-0.23,0.43
3.147,-0.15,0.06,-0.19,0.25
3.157,-0.31,-0.17,0.21,0.42
3.167,-0.28,0.07,0.18,0.34
3.177,-0.31,0.26,-0.03,0.41
3.187,-0.02,0.03,-0.12,0.13
3.197,0.18,-0.39,-0.11,0.44
3.207,0.18,-0.34,-0.24,0.45
3.217,0.12,-0.09,-0.05,0.16
3.228,0.02,-0.18,-0.06,0.19
3.238,0.13,-0.12,-0.13,0.22
3.248,0.44,0.23,0.10,0.50
3.258,0.62,0.40,-0.08,0.74
3.268,0.20,0.25,-0.11,0.34
3.278,-0.22,-0.02,-0.13,0.26
3.288,-0.35,-0.14,0.12,0.40
3.298,-0.39,0.07,0.34,0.53
3.308,-0.24,0.36,-0.26,0.51
3.318,0.01,-0.07,-0.03,0.07
3.328,0.15,-0.25,-0.33,0.44
3.338,0.18,-0.38,-0.01,0.42
3.348,0.17,-0.18,-0.25,0.35
3.359,0.11,-0.22,-0.07,0.26
3.369,0.33,-0.08,-0.17,0.37
3.379,0.34,0.18,0.26,0.47
3.389,0.47,0.36,-0.28,0.65
3.399,0.04,0.21,-0.08,0.22
3.409,-0.33,0.17,0.01,0.38
3.419,-0.45,0.05,0.27,0.52
3.429,-0.28,0.12,0.11,0.33
3.439,-0.18,0.29,-0.20,0.39
3.449,0.27,-0.32,0.10,0.43
3.459,0.13,-0.47,-0.33,0.59
3.469,0.12,-0.29,-0.14,0.35
3.480,0.08,0.02,-0.00,0.08
3.490,0.06,0.03,-0.24,0.25
3.500,0.34,-0.16,0.12,0.39
3.510,0.41,0.15,0.02,0.44
3.520,0.45,0.37,-0.25,0.64
3.530,0.15,0.26,0.05,0.30
3.540,-0.31,-0.02,0.06,0.32
3.550,-0.51,0.02,0.09,0.52
3.560,-0.30,0.16,0.18,0.38
3.570,-0.18,0.30,-0.20,0.41
3.580,0.11,-0.17,-0.10,0.23
3.591,0.33,-0.57,-0.20,0.69
3.600,0.16,-0.35,-0.22,0.44
3.611,0.18,-0.08,-0.03,0.20
3.621,0.02,0.08,-0.13,0.15
3.631,0.29,-0.00,-0.01,0.29
3.641,0.38,0.14,0.04,0.41
3.651,0.36,0.22,-0.08,0.43
3.661,0.09,0.33,-0.31,0.46
3.671,-0.26,-0.06,0.28,0.39
3.681,-0.41,-0.18,0.22,0.50
3.691,-0.30,0.16,-0.14,0.36
3.701,-0.05,0.34,0.01,0.34
3.712,0.13,0.06,-0.08,0.17
3.722,0.11,-0.49,-0.14,0.52
3.732,0.08,-0.51,-0.27,0.59
3.742,0.08,-0.20,-0.01,0.22
3.752,0.15,0.08,-0.10,0.20
3.762,0.38,0.14,0.04,0.40
3.772,0.47,0.21,0.04,0.52
3.782,0.32,0.22,-0.22,0.45
3.792,-0.03,0.05,-0.07,0.09
3.802,-0.26,-0.07,-0.01,0.27
3.812,-0.35,-0.15,0.33,0.51
3.822,-0.25,0.19,-0.15,0.35
3.833,-0.15,0.34,0.02,0.37
3.843,0.10,0.13,-0.18,0.24
3.853,0.06,-0.39,-0.08,0.40
3.863,0.22,-0.48,-0.22,0.57
3.873,0.10,-0.21,-0.08,0.24
3.883,0.26,0.06,-0.04,0.27
3.893,0.33,0.25,-0.03,0.41
3.903,0.53,0.10,0.09,0.55
3.913,0.17,0.21,-0.30,0.41
3.923,-0.13,0.06,-0.02,0.15
3.933,-0.28,-0.03,-0.03,0.29
3.943,-0.23,-0.12,0.36,0.44
3.954,-0.30,0.20,-0.07,0.37
3.964,-0.08,0.34,-0.21,0.41
3.974,0.19,-0.08,0.10,0.23
3.984,0.05,-0.26,-0.30,0.40
3.994,0.15,-0.46,-0.11,0.50
4.004,0.11,-0.33,-0.10,0.37
4.014,0.21,-0.00,0.08,0.22
4.024,0.41,0.46,-0.30,0.68
4.034,0.49,0.27,0.23,0.60
4.044,0.26,0.07,-0.35,0.44
4.054,-0.14,-0.20,0.05,0.25
4.065,-0.26,-0.09,-0.08,0.29
4.075,-0.39,0.20,0.39,0.59
4.085,-0.15,0.19,0.09,0.26
4.095,-0.21,0.32,-0.36,0.53
4.105,0.12,-0.02,0.07,0.14
4.115,0.16,-0.23,-0.14,0.31
4.125,0.07,-0.44,-0.17,0.47
4.135,0.20,-0.41,-0.09,0.47
4.145,0.21,-0.11,0.21,0.31
4.155,0.49,0.44,-0.49,0.82
4.165,0.47,0.27,0.32,0.63
4.176,0.19,0.15,-0.36,0.44
4.186,-0.20,-0.24,0.13,0.34
4.196,-0.34,-0.08,-0.22,0.41
4.206,-0.30,0.17,0.46,0.57
4.216,-0.12,0.30,0.03,0.32
4.226,-0.00,0.13,-0.21,0.25
4.236,-0.00,-0.16,-0.09,0.18
4.246,0.17,-0.26,-0.14,0.34
4.256,0.09,-0.20,-0.14,0.26
4.266,0.12,-0.27,-0.10,0.31
4.276,0.06,-0.22,0.13,0.26
4.286,0.48,0.30,-0.39,0.69
4.296,0.62,0.44,-0.03,0.76
4.307,0.28,0.19,0.19,0.39
4.317,-0.08,-0.14,-0.23,0.28
4.327,-0.45,-0.32,-0.13,0.56
4.337,-0.34,-0.04,0.57,0.66
4.347,-0.28,0.54,-0.24,0.66
4.357,0.04,0.24,-0.07,0.26
4.367,0.08,-0.27,0.05,0.28
4.377,0.09,-0.34,-0.35,0.50
4.387,0.10,-0.18,-0.04,0.21
4.397,0.19,-0.15,-0.13,0.28
4.407,0.11,-0.24,0.15,0.31
4.417,0.44,0.28,-0.55,0.75
4.428,0.61,0.17,0.31,0.71
4.438,0.32,0.23,-0.26,0.47
4.448,-0.18,-0.13,0.14,0.27
4.458,-0.49,0.17,-0.20,0.56
4.468,-0.53,0.28,0.48,0.77
4.478,-0.08,0.22,-0.07,0.25
4.488,0.00,0.09,-0.27,0.29
4.498,0.25,-0.48,0.10,0.55
4.508,0.13,-0.36,-0.35,0.52
4.518,-0.03,-0.16,-0.01,0.16
4.528,0.02,0.05,-0.10,0.12
4.539,0.18,-0.19,0.19,0.32
4.549,0.46,0.09,-0.65,0.80
4.559,0.57,0.17,0.39,0.71
4.569,0.43,0.24,-0.36,0.61
4.579,-0.09,-0.04,0.17,0.20
4.589,-0.50,0.07,-0.05,0.51
4.599,-0.63,0.19,0.25,0.70
4.609,-0.19,0.19,0.09,0.29
4.619,0.03,0.24,-0.24,0.34
4.629,0.25,-0.27,0.02,0.37
4.639,0.23,-0.44,-0.32,0.59
4.649,0.06,-0.23,0.01,0.24
4.660,0.06,0.02,-0.15,0.16
4.670,0.04,-0.04,0.14,0.15
4.680,0.54,0.01,-0.42,0.68
4.690,0.48,0.11,0.35,0.60
4.700,0.37,0.17,-0.40,0.57
4.710,-0.05,-0.04,0.10,0.12
4.720,-0.56,0.29,-0.02,0.63
4.730,-0.54,0.17,0.31,0.64
4.740,-0.13,-0.04,0.03,0.14
4.750,0.09,0.05,-0.24,0.27
4.760,0.19,-0.17,-0.09,0.27
4.770,0.23,-0.51,-0.02,0.56
4.781,0.03,-0.26,-0.23,0.35
4.791,0.04,-0.00,-0.09,0.10
4.801,0.06,0.03,0.23,0.24
4.811,0.51,0.17,-0.52,0.75
4.821,0.54,0.00,0.41,0.67
4.831,0.39,0.17,-0.45,0.62
4.841,-0.12,-0.06,0.17,0.22
4.851,-0.48,0.36,-0.03,0.60
4.861,-0.65,0.32,0.36,0.81
4.871,-0.26,-0.01,-0.08,0.27
4.881,0.03,-0.17,-0.20,0.27
4.891,0.39,-0.22,-0.16,0.47
4.902,0.17,-0.34,0.02,0.38
4.912,0.15,-0.28,-0.32,0.45
4.922,0.01,-0.16,0.11,0.19
4.932,0.20,0.12,-0.09,0.25
4.942,0.60,0.35,-0.33,0.77
4.952,0.44,0.05,0.39,0.59
4.962,0.23,0.06,-0.53,0.58
4.972,-0.40,-0.03,0.17,0.44
4.982,-0.47,0.34,0.14,0.59
4.992,-0.49,0.36,0.24,0.65
5.002,-0.05,0.04,-0.11,0.12
5.012,0.18,-0.22,-0.11,0.31
5.023,0.21,-0.32,-0.18,0.43
5.033,0.14,-0.31,-0.15,0.37
5.043,0.11,-0.31,-0.10,0.34
5.053,-0.02,-0.07,-0.18,0.19
5.063,0.28,0.09,0.15,0.33
5.073,0.66,0.41,-0.46,0.90
5.083,0.42,0.01,0.56,0.70
5.093,0.21,0.05,-0.61,0.65
5.103,-0.54,-0.00,0.16,0.56
5.113,-0.33,0.21,0.10,0.40
5.123,-0.37,0.16,0.31,0.51
5.133,-0.18,0.10,-0.08,0.22
5.144,0.10,-0.21,-0.30,0.38
5.154,0.19,-0.24,-0.11,0.32
5.164,0.20,-0.14,-0.02,0.25
5.174,0.13,-0.30,-0.21,0.39
5.184,0.04,-0.17,-0.15,0.23
5.194,0.38,0.13,0.07,0.41
5.204,0.49,0.29,0.07,0.57
5.214,0.39,0.13,-0.14,0.44
5.224,0.05,0.01,-0.22,0.23
5.234,-0.47,0.09,0.16,0.50
5.245,-0.41,0.38,0.20,0.59
5.255,-0.40,0.25,0.11,0.48
5.265,-0.02,-0.10,-0.07,0.12
5.275,0.18,-0.38,-0.31,0.52
5.285,0.29,-0.44,-0.06,0.52
5.295,0.08,-0.04,-0.19,0.21
5.305,0.04,-0.10,-0.01,0.10
5.315,0.09,-0.16,-0.19,0.26
5.325,0.43,0.12,0.09,0.46
5.335,0.56,0.36,-0.01,0.67
5.345,0.37,0.19,-0.06,0.42
5.355,-0.04,0.04,-0.20,0.20
5.365,-0.49,-0.11,0.13,0.52
5.376,-0.38,0.07,0.27,0.47
5.386,-0.36,0.41,-0.11,0.56
5.396,0.01,0.08,0.06,0.10
5.406,0.17,-0.27,-0.33,0.46
5.416,0.17,-0.43,-0.00,0.46
5.426,0.18,-0.14,-0.24,0.33
5.436,0.10,-0.09,-0.09,0.16
5.446,0.21,-0.15,-0.09,0.27
5.456,0.42,0.10,0.11,0.44
5.466,0.48,0.32,0.01,0.58
5.476,0.25,0.27,-0.19,0.41
5.487,-0.15,-0.01,-0.11,0.19
5.497,-0.51,-0.05,0.26,0.57
5.507,-0.38,0.10,0.18,0.43
5.517,-0.29,0.38,-0.13,0.50
5.527,0.10,0.04,-0.05,0.12
5.537,0.30,-0.43,-0.23,0.57
5.547,0.17,-0.43,-0.12,0.47
5.557,0.06,-0.16,-0.02,0.17
5.567,-0.06,0.08,-0.23,0.25
5.577,0.26,-0.10,0.02,0.28
5.587,0.42,0.10,-0.02,0.43
5.597,0.53,0.27,0.01,0.60
5.608,0.34,0.28,-0.17,0.47
5.618,-0.26,0.08,-0.01,0.28
5.628,-0.50,-0.03,0.24,0.55
5.638,-0.44,0.11,0.11,0.47
5.648,-0.24,0.34,-0.11,0.43
5.658,0.11,0.12,-0.03,0.16
5.668,0.22,-0.48,-0.11,0.54
5.678,0.14,-0.49,-0.36,0.62
5.688,0.18,-0.17,0.02,0.25
5.698,0.12,0.11,-0.07,0.18
5.708,0.24,-0.01,-0.03,0.24
5.718,0.35,0.10,-0.02,0.36
5.729,0.42,0.19,0.03,0.46
5.738,0.21,0.30,-0.23,0.43
5.749,-0.15,-0.02,0.04,0.15
5.759,-0.35,-0.18,0.24,0.46
5.769,-0.35,0.11,0.13,0.39
5.779,-0.26,0.37,-0.13,0.47
5.789,0.07,0.23,-0.09,0.26
5.799,0.22,-0.35,0.03,0.41
5.809,0.16,-0.53,-0.35,0.66
5.819,0.13,-0.30,-0.05,0.33
5.829,0.02,0.06,-0.04,0.08
5.839,0.24,0.19,-0.03,0.31
5.850,0.54,0.04,0.08,0.54
5.860,0.42,0.25,-0.17,0.51
5.870,0.15,0.08,-0.14,0.22
5.880,-0.19,-0.07,-0.03,0.21
5.890,-0.36,-0.21,0.27,0.50
5.900,-0.43,0.19,0.01,0.47
5.910,-0.24,0.39,-0.00,0.46
5.920,0.13,0.19,-0.15,0.27
5.930,0.19,-0.15,-0.16,0.29
5.940,0.20,-0.48,-0.07,0.52
5.950,0.13,-0.34,-0.26,0.45
5.960,0.16,-0.06,0.03,0.17
5.971,0.25,0.25,-0.02,0.35
5.981,0.41,0.16,0.02,0.44
5.991,0.28,0.07,-0.18,0.34
6.001,0.04,0.07,-0.09,0.12
6.011,-0.13,-0.06,-0.10,0.17
6.021,-0.28,-0.05,0.34,0.44
6.031,-0.23,0.15,0.08,0.28
6.041,-0.28,0.33,-0.21,0.48
6.051,0.09,0.12,-0.01,0.15
6.061,0.13,-0.17,-0.07,0.22
6.071,0.06,-0.40,-0.26,0.48
6.082,0.17,-0.37,-0.09,0.42
6.092,0.19,-0.05,-0.01,0.19
6.102,0.33,0.35,0.00,0.48
6.112,0.50,0.31,0.06,0.59
6.122,0.37,0.07,-0.28,0.47
6.132,-0.17,-0.09,-0.09,0.21
6.142,-0.06,-0.20,0.08,0.22
6.152,-0.29,0.06,0.18,0.34
6.162,-0.35,0.21,0.09,0.42
6.172,-0.13,0.30,-0.18,0.38
6.182,0.01,0.07,-0.06,0.10
6.192,0.18,-0.17,-0.12,0.28
6.203,0.15,-0.29,-0.19,0.38
6.213,0.08,-0.42,-0.12,0.44
6.223,0.24,-0.20,-0.09,0.33
6.233,0.41,0.14,0.09,0.44
6.243,0.40,0.41,-0.12,0.58
6.253,0.26,0.20,-0.05,0.33
6.263,-0.01,-0.09,-0.16,0.18
6.273,-0.29,-0.13,-0.04,0.32
6.283,-0.25,0.12,0.29,0.40
6.293,-0.28,0.26,0.14,0.41
6.303,-0.01,0.19,-0.20,0.28
6.314,-0.02,-0.08,-0.09,0.12
6.324,0.20,-0.28,-0.18,0.38
6.334,-0.11,-0.09,-0.30,0.33
6.344,0.41,-0.30,0.04,0.51
6.354,0.07,-0.21,-0.11,0.25
6.364,0.22,-0.01,-0.18,0.29
6.374,0.44,0.43,0.05,0.61
6.384,0.45,0.55,-0.10,0.72
6.394,0.14,-0.33,0.21,0.42
6.404,-0.39,-0.40,-0.60,0.82
6.414,-0.38,-0.16,0.62,0.75
6.424,-0.28,0.49,0.10,0.57
6.434,-0.15,0.48,-0.21,0.54
6.445,0.09,-0.13,0.05,0.16
6.455,0.10,-0.36,-0.32,0.50
6.465,0.14,-0.26,-0.00,0.30
6.475,0.13,-0.04,-0.21,0.25
6.485,0.16,-0.21,0.05,0.26
6.495,0.28,0.00,-0.10,0.29
6.505,0.53,0.22,-0.02,0.57
6.515,0.44,0.26,-0.16,0.54
6.525,0.04,-0.01,0.08,0.09
6.535,-0.48,0.05,-0.13,0.50
6.546,-0.43,0.09,0.21,0.49
6.556,-0.16,0.12,0.21,0.29
6.566,-0.07,0.25,-0.14,0.29
6.576,0.16,-0.23,-0.07,0.29
6.586,0.08,-0.36,-0.27,0.45
6.596,0.10,-0.26,-0.03,0.28
6.606,0.07,-0.04,-0.18,0.20
6.616,0.09,-0.03,-0.06,0.11
6.626,0.43,-0.05,0.04,0.43
6.636,0.42,0.19,0.02,0.46
6.646,0.51,0.21,-0.24,0.61
6.656,0.09,0.08,0.00,0.12
6.667,-0.37,0.11,-0.08,0.39
6.677,-0.43,0.02,0.40,0.59
6.687,-0.34,0.16,0.04,0.38
6.697,-0.10,0.28,-0.15,0.33
6.707,0.11,-0.04,-0.05,0.12
6.717,0.22,-0.48,-0.17,0.56
6.727,0.10,-0.34,-0.18,0.39
6.737,0.06,-0.08,-0.10,0.14
6.747,0.21,0.07,-0.25,0.33
6.757,0.35,0.01,0.14,0.38
6.767,0.50,0.04,0.05,0.50
6.777,0.30,0.18,-0.25,0.43
6.788,0.12,0.04,-0.11,0.16
6.798,-0.40,0.11,0.01,0.41
6.808,-0.43,0.05,0.33,0.54
6.818,-0.23,0.10,0.04,0.25
6.828,-0.08,0.29,-0.09,0.31
6.838,0.16,-0.02,-0.13,0.20
6.848,0.16,-0.54,-0.10,0.57
6.858,0.07,-0.41,-0.28,0.50
6.868,0.10,-0.11,-0.02,0.15
6.878,0.09,0.15,-0.14,0.22
6.888,0.35,0.10,0.01,0.36
6.898,0.48,0.08,0.14,0.50
6.909,0.41,0.15,-0.39,0.58
6.919,0.03,0.06,0.05,0.08
6.929,-0.34,0.10,-0.02,0.36
6.939,-0.35,0.00,0.21,0.41
6.949,-0.39,0.09,0.17,0.43
6.959,-0.14,0.17,-0.16,0.27
6.969,0.14,-0.08,-0.14,0.21
6.979,0.15,-0.33,-0.10,0.38
6.989,0.21,-0.43,-0.12,0.49
6.999,0.11,-0.18,-0.08,0.23
7.009,0.21,0.03,-0.12,0.25
7.019,0.38,0.28,0.08,0.47
7.030,0.48,0.16,0.06,0.51
7.040,0.24,0.07,-0.33,0.41
7.050,-0.06,0.06,-0.00,0.09
7.060,-0.39,0.17,0.03,0.43
7.070,-0.36,0.18,0.31,0.51
7.080,-0.29,0.07,0.06,0.31
7.090,-0.02,0.06,-0.40,0.41
7.100,0.20,-0.24,0.14,0.35
7.110,0.22,-0.33,-0.23,0.46
7.120,0.04,-0.36,-0.27,0.45
7.130,-0.01,-0.16,-0.10,0.19
7.141,0.26,0.12,-0.07,0.30
7.151,0.36,0.32,0.20,0.53
7.161,0.59,0.19,-0.16,0.64
7.171,0.19,0.04,-0.21,0.29
7.181,-0.17,-0.08,0.00,0.18
7.191,-0.36,0.05,0.08,0.37
7.201,-0.33,0.12,0.25,0.44
7.211,-0.25,0.22,0.02,0.33
7.221,-0.07,0.08,-0.28,0.30
7.231,0.20,-0.26,-0.07,0.33
7.241,0.14,-0.21,-0.17,0.31
7.251,0.16,-0.30,-0.07,0.35
7.262,0.11,-0.26,-0.19,0.34
7.272,0.27,-0.00,-0.05,0.28
7.282,0.51,0.29,0.14,0.61
7.292,0.43,0.27,-0.19,0.54
7.302,0.08,-0.01,0.02,0.09
7.312,-0.32,0.05,-0.20,0.38
7.322,-0.47,0.25,0.24,0.58
7.332,-0.25,0.31,0.24,0.46
7.342,-0.07,0.08,-0.13,0.16
7.352,0.03,-0.18,-0.26,0.32
7.362,0.30,-0.45,-0.00,0.54
7.372,0.07,-0.15,-0.24,0.29
7.383,0.07,-0.20,-0.06,0.22
7.393,0.12,-0.23,-0.15,0.30
7.403,0.25,-0.01,0.01,0.25
7.413,0.55,0.31,0.05,0.63
7.423,0.48,0.22,-0.15,0.55
7.433,0.10,0.05,-0.15,0.19
7.443,-0.41,0.10,0.06,0.43
7.453,-0.54,0.18,0.40,0.69
7.463,-0.41,0.32,-0.05,0.52
7.473,-0.00,0.05,-0.05,0.07
7.483,0.31,-0.32,-0.17,0.48
7.493,0.21,-0.38,-0.10,0.44
7.504,0.13,-0.18,-0.15,0.27
7.514,0.06,-0.05,-0.16,0.18
7.524,0.08,-0.25,0.08,0.27
7.534,0.33,-0.02,-0.18,0.38
7.544,0.57,0.24,-0.03,0.62
7.554,0.40,0.19,-0.05,0.45
7.564,-0.05,0.09,-0.03,0.11
7.574,-0.59,0.30,-0.04,0.66
7.584,-0.53,0.43,0.28,0.74
7.594,-0.27,0.19,0.02,0.33
7.604,0.04,-0.06,-0.19,0.20
7.615,0.42,-0.62,-0.12,0.76
7.625,0.26,-0.45,-0.26,0.58
7.635,0.10,-0.16,-0.02,0.19
7.645,-0.13,0.11,-0.21,0.27
7.655,0.04,-0.10,0.03,0.11
7.665,0.45,0.11,-0.18,0.50
7.675,0.59,0.21,0.18,0.65
7.685,0.47,0.24,-0.32,0.62
7.695,-0.12,0.08,0.12,0.18
7.705,-0.52,0.32,-0.01,0.61
7.715,-0.58,0.09,0.47,0.75
7.726,-0.22,0.15,-0.25,0.37
7.736,0.03,0.13,-0.21,0.25
7.746,0.36,-0.38,0.18,0.56
7.756,0.20,-0.49,-0.42,0.68
7.766,0.05,-0.29,-0.05,0.30
7.776,0.08,-0.01,-0.01,0.09
7.786,0.11,0.02,-0.10,0.15
7.796,0.50,0.05,-0.09,0.52
7.806,0.46,0.20,0.12,0.52
7.816,0.24,0.25,-0.28,0.45
7.826,-0.12,0.10,0.03,0.16
7.836,-0.35,-0.15,0.22,0.44
7.847,-0.36,0.06,-0.01,0.36
7.856,-0.25,0.27,0.14,0.39
7.867,0.02,0.29,-0.18,0.35
7.877,0.11,-0.11,-0.17,0.23
7.887,0.26,-0.54,-0.05,0.60
7.897,0.01,-0.37,-0.24,0.44
7.907,0.07,-0.12,-0.02,0.14
7.917,0.19,0.03,0.25,0.32
7.927,0.52,0.25,-0.68,0.89
7.937,0.50,0.12,0.53,0.74
7.947,0.26,0.24,-0.48,0.60
7.957,-0.25,-0.09,0.14,0.30
7.968,-0.23,-0.21,0.08,0.32
7.978,-0.39,0.06,0.13,0.41
7.988,-0.33,0.33,-0.04,0.47
7.998,0.01,0.27,-0.17,0.32
8.008,0.10,-0.03,-0.03,0.11
8.018,0.24,-0.36,-0.17,0.46
8.028,0.13,-0.35,-0.18,0.41
8.038,0.20,-0.22,0.10,0.31
8.048,0.17,0.11,-0.14,0.24
8.058,0.52,0.34,-0.45,0.77
8.068,0.32,0.17,0.57,0.68
8.078,0.15,0.06,-0.61,0.64
8.089,-0.20,-0.20,0.15,0.32
8.099,-0.29,-0.05,0.16,0.33
8.109,-0.31,0.02,0.27,0.41
8.119,-0.20,0.32,-0.25,0.46
8.129,-0.01,0.21,0.01,0.21
8.139,0.13,-0.03,-0.10,0.17
8.149,0.12,-0.29,-0.36,0.48
8.159,0.14,-0.51,0.22,0.58
8.169,0.05,-0.29,-0.01,0.30
8.179,0.37,0.21,-0.39,0.57
8.189,0.63,0.51,-0.29,0.86
8.199,0.41,0.20,0.26,0.53
8.209,0.03,0.05,0.05,0.08
8.219,-0.18,-0.25,-0.16,0.35
8.230,-0.47,-0.04,0.00,0.47
8.240,-0.34,0.11,0.40,0.54
8.250,-0.06,0.31,-0.25,0.40
8.260,-0.03,0.15,-0.12,0.20
8.270,0.02,-0.06,-0.15,0.16
8.280,0.11,-0.26,-0.12,0.31
8.290,0.13,-0.47,-0.18,0.52
8.300,0.11,-0.36,-0.14,0.40
8.310,0.41,0.07,0.04,0.42
8.320,0.63,0.45,-0.26,0.82
8.331,0.34,0.27,0.24,0.50
8.341,0.14,-0.09,-0.38,0.41
8.351,-0.42,-0.21,-0.00,0.47
8.361,-0.27,-0.01,0.20,0.34
8.371,-0.31,0.33,0.21,0.50
8.381,-0.06,0.26,-0.03,0.27
8.391,0.04,0.04,-0.24,0.24
8.401,0.12,-0.27,-0.03,0.29
8.411,0.10,-0.24,-0.15,0.30
8.421,0.11,-0.13,-0.18,0.25
8.431,0.15,-0.26,0.13,0.33
8.441,0.12,-0.07,-0.16,0.22
8.451,0.53,0.42,-0.40,0.79
8.462,0.45,0.25,0.57,0.76
8.472,0.21,0.15,-0.64,0.69
8.482,-0.28,-0.30,0.19,0.45
8.492,-0.26,-0.24,0.26,0.44
8.502,-0.43,0.26,0.10,0.51
8.512,-0.25,0.52,-0.02,0.58
8.522,0.14,0.04,-0.14,0.20
8.532,0.08,-0.42,-0.10,0.44
8.542,0.21,-0.34,-0.22,0.45
8.552,0.06,-0.08,0.01,0.10
8.563,0.15,-0.22,-0.00,0.26
8.573,0.22,-0.05,-0.14,0.27
8.583,0.62,0.36,-0.41,0.82
8.593,0.51,0.11,0.39,0.65
8.603,0.12,0.16,-0.42,0.46
8.613,-0.52,-0.03,0.23,0.57
8.623,-0.63,0.24,-0.07,0.67
8.633,-0.20,0.06,0.30,0.37
8.643,0.07,0.18,-0.06,0.21
8.653,0.23,-0.11,-0.30,0.40
8.663,0.17,-0.46,-0.06,0.49
8.673,0.08,-0.26,-0.26,0.37
8.684,-0.04,-0.13,0.03,0.13
8.694,-0.04,-0.09,0.05,0.11
8.704,0.38,-0.08,-0.41,0.56
8.714,0.53,0.29,-0.13,0.62
8.724,0.69,0.23,-0.12,0.74
8.734,0.10,0.02,0.40,0.41
8.744,-0.21,0.01,-0.39,0.44
8.754,-0.81,0.30,0.23,0.90
8.764,-0.39,0.31,0.36,0.61
8.774,-0.07,0.17,-0.18,0.25
8.784,0.18,-0.11,-0.13,0.25
8.795,0.36,-0.56,-0.05,0.67
8.805,0.03,-0.36,-0.28,0.46
8.815,0.08,-0.09,-0.08,0.15
8.825,0.01,0.08,0.14,0.16
8.835,0.29,0.06,-0.43,0.52
8.845,0.62,0.15,-0.27,0.69
8.855,0.38,0.08,0.52,0.65
8.865,0.23,0.14,-0.56,0.62
8.875,-0.32,-0.06,0.14,0.36
8.885,-0.55,0.32,0.27,0.69
8.895,-0.35,0.13,0.03,0.37
8.905,-0.06,-0.03,0.07,0.09
8.915,0.24,0.02,-0.32,0.40
8.926,0.22,-0.38,0.07,0.44
8.936,0.15,-0.44,-0.22,0.51
8.946,-0.01,-0.26,-0.15,0.30
8.956,-0.06,0.02,0.13,0.15
8.966,0.37,0.20,-0.25,0.49
8.976,0.73,0.17,-0.41,0.85
8.986,0.30,-0.05,0.61,0.68
8.996,0.22,0.16,-0.33,0.43
9.006,-0.42,0.23,-0.10,0.49
9.016,-0.47,0.30,0.32,0.65
9.027,-0.44,0.10,0.13,0.47
9.037,-0.16,-0.07,-0.07,0.19
9.047,0.27,-0.24,-0.15,0.39
9.057,0.22,-0.24,-0.21,0.39
9.067,0.15,-0.35,-0.07,0.39
9.077,0.03,-0.17,-0.18,0.25
9.087,0.08,-0.15,0.11,0.20
9.097,0.37,0.18,-0.19,0.46
9.107,0.76,0.35,-0.35,0.91
9.117,0.26,0.04,0.52,0.58
9.127,0.05,0.08,-0.52,0.53
9.137,-0.49,0.05,0.10,0.50
9.147,-0.47,0.39,0.30,0.68
9.157,-0.27,0.16,0.14,0.35
9.168,-0.09,0.00,-0.23,0.24
9.178,0.18,-0.25,-0.11,0.33
9.188,0.29,-0.28,-0.11,0.42
9.198,0.13,-0.34,-0.14,0.38
9.208,-0.04,-0.20,-0.27,0.33
9.218,0.08,-0.10,0.04,0.14
9.228,0.38,0.23,-0.06,0.45
9.238,0.62,0.26,0.05,0.68
9.248,0.38,0.10,-0.21,0.44
9.258,-0.08,-0.00,-0.19,0.21
9.269,-0.38,0.12,0.13,0.41
9.279,-0.37,0.15,0.30,0.50
9.289,-0.40,0.09,0.02,0.41
9.299,-0.06,0.09,-0.24,0.26
9.309,0.26,-0.19,-0.08,0.33
9.319,0.20,-0.18,-0.26,0.37
9.329,0.12,-0.24,0.06,0.28
9.339,0.16,-0.25,-0.29,0.41
9.349,0.24,-0.12,-0.07,0.28
9.359,0.33,0.20,0.20,0.43
9.369,0.55,0.30,-0.25,0.68
9.379,0.24,0.09,0.06,0.27
9.389,-0.21,0.02,-0.21,0.29
9.400,-0.51,0.10,0.14,0.53
9.410,-0.30,0.30,0.30,0.52
9.420,-0.33,0.25,-0.09,0.42
9.430,0.10,-0.19,-0.25,0.33
9.440,0.26,-0.52,-0.10,0.59
9.450,0.19,-0.28,-0.18,0.38
9.460,0.06,-0.04,-0.12,0.14
9.470,0.04,-0.19,-0.04,0.19
9.480,0.13,0.03,-0.25,0.28
9.490,0.39,0.33,0.20,0.55
9.500,0.41,0.40,-0.01,0.57
9.511,0.78,-0.06,-0.12,0.79
9.521,-0.45,-0.08,-0.16,0.49
9.531,-0.42,-0.17,0.28,0.53
9.541,-0.51,0.25,0.27,0.63
9.551,-0.32,0.52,-0.26,0.67
9.561,0.15,-0.13,0.05,0.21
9.571,0.16,-0.39,-0.30,0.52
9.581,0.26,-0.38,-0.08,0.46
9.591,0.02,-0.07,-0.14,0.16
9.601,0.14,-0.22,-0.14,0.29
9.611,0.25,-0.10,-0.10,0.29
9.621,0.43,0.15,0.14,0.48
9.631,0.49,0.37,-0.21,0.65
9.642,0.15,0.17,-0.01,0.22
9.652,-0.38,0.13,-0.04,0.40
9.662,-0.47,0.02,0.31,0.57
9.672,-0.42,0.27,0.01,0.50
9.682,-0.25,0.42,-0.17,0.52
9.692,0.36,-0.32,0.12,0.49
9.702,0.23,-0.65,-0.25,0.73
9.712,0.17,-0.35,-0.34,0.52
9.722,0.09,-0.02,0.12,0.15
9.732,-0.08,0.11,-0.22,0.26
9.742,0.12,0.13,-0.22,0.28
9.753,0.79,0.05,0.57,0.98
9.763,0.27,0.32,-0.65,0.78
9.773,0.23,0.03,-0.19,0.30
9.783,-0.32,-0.08,0.34,0.48
9.793,-0.61,0.13,0.09,0.63
9.803,-0.32,0.19,-0.03,0.37
9.813,-0.05,0.28,-0.23,0.36
9.823,0.21,-0.12,0.01,0.24
9.833,0.17,-0.45,-0.24,0.54
9.843,0.07,-0.39,-0.11,0.41
9.853,0.14,-0.09,-0.09,0.19
9.864,0.08,0.11,-0.18,0.23
9.874,0.48,-0.02,0.16,0.51
9.884,0.40,0.21,-0.10,0.46
9.894,0.44,0.18,-0.18,0.51
9.904,-0.13,0.22,-0.00,0.25
9.914,-0.29,-0.18,0.08,0.36
9.924,-0.31,-0.14,0.13,0.36
9.934,-0.31,0.30,-0.06,0.43
9.944,-0.05,0.33,0.06,0.34
9.954,0.12,-0.02,-0.23,0.26
9.964,0.15,-0.50,-0.16,0.55
9.974,0.09,-0.45,-0.13,0.48
9.984,0.08,-0.19,-0.13,0.24
9.995,0.09,0.11,-0.04,0.15
10.005,0.48,0.24,-0.14,0.56
10.015,0.53,0.16,0.22,0.60
10.025,0.27,0.18,-0.39,0.51
10.035,-0.07,0.03,0.00,0.08
10.045,-0.28,-0.13,0.14,0.34
10.055,-0.33,-0.14,0.23,0.43
10.065,-0.41,0.28,-0.14,0.51
10.075,-0.02,0.36,-0.00,0.36
10.085,0.14,0.10,-0.13,0.21
10.095,0.16,-0.45,-0.06,0.49
10.106,0.12,-0.39,-0.35,0.54
10.116,0.17,-0.16,0.15,0.28
10.126,0.24,0.12,-0.11,0.29
10.136,0.34,0.23,-0.23,0.47
10.146,0.38,0.13,0.32,0.52
10.156,0.20,0.15,-0.49,0.55
10.166,-0.02,-0.14,0.07,0.16
10.176,-0.27,-0.06,0.09,0.29
10.186,-0.34,-0.05,0.22,0.41
10.196,-0.20,0.22,0.01,0.30
10.206,-0.17,0.34,-0.11,0.39
10.216,0.11,-0.04,-0.16,0.20
10.226,0.09,-0.36,-0.07,0.38
10.237,0.21,-0.42,-0.26,0.54
10.247,0.05,-0.22,-0.03,0.22
10.257,0.18,0.08,0.12,0.23
10.267,0.44,0.44,-0.47,0.79
10.277,0.50,0.21,0.20,0.58
10.287,0.18,0.08,-0.27,0.33
10.297,-0.10,-0.20,0.06,0.23
10.307,-0.25,-0.13,-0.01,0.28
10.317,-0.39,0.14,0.36,0.55
10.327,-0.21,0.26,-0.05,0.34
10.338,-0.07,0.29,-0.25,0.39
10.348,0.14,-0.06,0.06,0.16
10.358,0.11,-0.24,-0.21,0.33
10.368,0.11,-0.43,-0.19,0.48
10.378,0.13,-0.39,0.14,0.44
10.388,0.12,0.02,-0.12,0.17
10.398,0.61,0.44,-0.49,0.90
10.408,0.51,0.28,0.24,0.63
10.418,0.03,0.15,-0.08,0.18
10.428,-0.20,-0.28,-0.05,0.35
10.438,-0.36,-0.14,-0.15,0.42
10.448,-0.26,0.15,0.48,0.56
10.458,-0.14,0.31,-0.05,0.35
10.469,0.03,0.11,-0.17,0.20
10.479,0.08,-0.19,-0.03,0.20
10.489,0.16,-0.22,-0.19,0.34
10.499,0.04,-0.15,-0.09,0.18
10.509,0.18,-0.25,0.01,0.31
10.519,0.04,-0.17,0.07,0.18
10.529,0.51,0.27,-0.60,0.83
10.539,0.56,0.41,0.14,0.70
10.549,0.23,0.20,0.02,0.31
10.559,-0.10,-0.15,-0.08,0.20
10.569,-0.45,-0.29,-0.08,0.54
10.580,-0.31,0.03,0.42,0.52
10.590,-0.25,0.47,-0.13,0.54
10.600,-0.02,0.18,0.02,0.18
10.610,0.08,-0.17,-0.34,0.39
10.620,0.20,-0.35,-0.04,0.41
10.630,0.14,-0.17,-0.08,0.24
10.640,0.05,-0.32,0.04,0.33
10.650,0.17,-0.25,-0.18,0.35
10.660,0.56,0.34,-0.44,0.79
10.670,0.69,0.31,0.09,0.76
10.680,0.09,0.13,0.20,0.25
10.691,-0.15,-0.07,-0.24,0.29
10.701,-0.82,0.20,0.05,0.84
10.711,-0.39,0.36,0.41,0.67
10.721,-0.00,0.14,-0.06,0.15
10.731,0.18,-0.11,-0.21,0.30
10.741,0.33,-0.51,-0.02,0.61
10.751,-0.00,-0.32,-0.23,0.39
10.761,-0.04,-0.14,-0.07,0.16
10.771,0.01,-0.03,0.01,0.04
10.781,0.10,-0.21,-0.06,0.24
10.791,0.53,0.19,-0.54,0.78
10.801,0.69,0.21,0.13,0.74
10.811,0.29,0.06,0.18,0.35
10.822,-0.09,0.08,-0.26,0.29
10.832,-0.64,0.20,0.14,0.69
10.842,-0.56,0.62,0.27,0.88
10.852,-0.23,0.13,0.19,0.33
10.862,0.10,-0.14,-0.37,0.40
10.872,0.41,-0.55,-0.10,0.69
10.882,0.22,-0.49,-0.09,0.55
10.892,0.08,-0.12,-0.20,0.25
10.902,-0.04,0.02,0.25,0.25
10.913,0.15,0.01,-0.37,0.40
10.922,0.57,0.11,-0.36,0.68
10.933,0.61,0.26,0.03,0.66
10.943,0.20,-0.01,0.35,0.40
10.953,-0.16,0.08,-0.48,0.51
10.963,-0.75,0.18,0.24,0.81
10.973,-0.38,0.45,0.15,0.61
10.983,-0.05,-0.03,0.27,0.28
10.993,0.10,-0.16,-0.63,0.66
11.003,0.41,-0.49,-0.11,0.64
11.013,0.21,-0.45,0.07,0.50
11.023,-0.16,-0.20,-0.29,0.39
11.033,-0.06,-0.04,0.09,0.12
11.043,0.29,0.24,-0.55,0.66
11.054,0.46,0.25,-0.01,0.52
11.064,0.83,-0.00,-0.07,0.83
11.074,0.05,-0.05,0.03,0.07
11.084,-0.17,0.00,-0.12,0.21
11.094,-0.61,0.35,0.18,0.72
11.104,-0.51,0.41,0.20,0.69
11.114,-0.21,0.09,0.01,0.23
11.124,0.15,-0.20,-0.15,0.29
11.134,0.34,-0.33,-0.25,0.53
11.144,0.19,-0.42,0.02,0.46
11.154,0.09,-0.22,-0.36,0.43
11.165,-0.07,-0.17,0.33,0.37
11.175,0.22,0.11,-0.38,0.45
11.185,0.76,0.25,-0.39,0.88
11.195,0.48,-0.04,0.45,0.66
11.205,0.12,0.11,-0.47,0.50
11.215,-0.27,0.07,0.15,0.32
11.225,-0.58,0.39,0.12,0.71
11.235,-0.54,0.56,0.18,0.80
11.245,-0.10,0.05,-0.01,0.11
11.255,0.22,-0.40,-0.19,0.50
11.265,0.32,-0.39,-0.20,0.54
11.275,0.24,-0.29,-0.03,0.38
11.285,0.03,-0.26,-0.09,0.27
11.296,-0.07,-0.10,-0.06,0.14
11.306,0.30,0.18,-0.16,0.38
11.316,0.74,0.37,-0.25,0.87
11.326,0.33,0.05,0.34,0.48
11.336,0.08,0.02,-0.43,0.43
11.346,-0.56,0.09,0.09,0.57
11.356,-0.36,0.26,0.27,0.52
11.366,-0.29,0.11,0.12,0.33
11.376,-0.10,0.04,-0.23,0.25
11.386,0.20,-0.25,-0.09,0.33
11.397,0.19,-0.27,-0.11,0.35
11.406,0.09,-0.11,-0.25,0.29
11.417,0.17,-0.29,-0.02,0.34
11.427,0.09,-0.22,-0.00,0.24
11.437,0.47,0.11,-0.24,0.54
11.447,0.62,0.32,-0.19,0.73
11.457,0.28,0.08,0.18,0.34
11.467,-0.06,0.09,-0.22,0.25
11.477,-0.67,0.14,0.11,0.70
11.487,-0.51,0.64,0.17,0.84
11.497,-0.19,0.29,0.13,0.37
11.507,0.18,-0.31,-0.14,0.38
11.517,0.24,-0.61,-0.33,0.73
11.528,0.30,-0.42,-0.03,0.51
11.538,-0.04,0.03,-0.11,0.12
11.548,0.03,-0.11,-0.18,0.21
11.558,0.04,-0.23,0.03,0.23
11.568,0.54,0.17,-0.23,0.61
11.578,0.69,0.29,0.05,0.75
11.588,0.36,0.11,-0.17,0.41
11.598,-0.14,-0.11,0.08,0.19
11.608,-0.69,0.34,-0.02,0.78
11.618,-0.60,0.54,0.26,0.85
11.628,-0.16,0.19,0.04,0.25
11.638,0.17,-0.32,-0.22,0.42
11.649,0.28,-0.50,-0.32,0.65
11.659,0.29,-0.33,-0.02,0.44
11.669,0.02,0.02,-0.15,0.15
11.679,0.01,-0.11,-0.12,0.16
11.689,0.12,-0.21,0.07,0.25
11.699,0.62,0.16,-0.40,0.75
11.709,0.51,0.23,0.20,0.60
11.719,0.24,0.08,-0.10,0.28
11.729,-0.39,0.09,-0.13,0.42
11.739,-0.62,0.40,0.24,0.78
11.749,-0.34,0.13,0.32,0.49
11.760,-0.10,0.30,-0.39,0.50
11.769,0.19,-0.20,0.10,0.29
11.780,0.26,-0.53,-0.21,0.62
11.790,0.12,-0.41,-0.27,0.50
11.800,0.02,-0.08,0.02,0.09
11.810,0.06,-0.01,-0.04,0.07
11.820,0.22,-0.15,-0.14,0.30
11.830,0.59,0.28,-0.42,0.78
11.840,0.46,0.13,0.50,0.69
11.850,0.28,0.22,-0.49,0.61
11.860,-0.52,0.14,0.24,0.59
11.870,-0.46,0.26,0.10,0.54
11.881,-0.46,0.10,0.12,0.49
11.891,-0.05,0.11,-0.18,0.22
11.901,0.24,-0.12,-0.15,0.31
11.911,0.35,-0.41,-0.17,0.57
11.921,0.08,-0.36,-0.16,0.40
11.931,-0.04,-0.14,-0.10,0.18
11.941,-0.07,-0.05,0.19,0.21
11.951,0.49,0.02,-0.53,0.72
11.961,0.66,0.28,-0.25,0.76
11.971,0.35,0.19,0.52,0.66
11.982,0.17,0.21,-0.54,0.61
11.991,-0.41,-0.17,0.19,0.48
12.002,-0.30,-0.16,0.27,0.44
12.012,-0.43,0.26,-0.06,0.50
12.022,-0.08,0.43,-0.08,0.45
12.032,0.17,0.15,-0.04,0.23
12.042,0.14,-0.39,-0.21,0.47
12.052,0.11,-0.52,-0.22,0.57
12.062,0.03,-0.34,0.19,0.40
12.072,-0.01,-0.06,-0.10,0.11
12.082,0.46,0.30,-0.63,0.84
12.092,0.73,0.35,0.04,0.81
12.102,0.36,0.25,0.06,0.44
12.112,0.00,-0.09,-0.09,0.13
12.123,-0.35,-0.22,0.01,0.42
12.133,-0.36,-0.24,0.20,0.48
12.143,-0.35,0.23,0.02,0.42
12.153,-0.07,0.47,-0.06,0.48
12.163,0.10,0.17,-0.16,0.25
12.173,0.14,-0.30,-0.12,0.35
12.183,0.21,-0.54,-0.10,0.59
12.193,0.00,-0.38,0.06,0.38
12.203,0.17,0.10,-0.26,0.32
12.213,0.47,0.42,-0.43,0.77
12.223,0.52,0.29,-0.01,0.60
12.234,0.20,0.10,0.26,0.35
12.244,-0.09,-0.07,-0.36,0.37
12.254,-0.27,-0.17,0.11,0.33
12.264,-0.27,-0.03,0.33,0.43
12.274,-0.22,0.16,-0.03,0.27
12.284,-0.12,0.37,-0.17,0.42
12.294,0.18,0.07,0.07,0.20
12.304,0.00,-0.19,-0.31,0.36
12.314,0.11,-0.46,-0.08,0.48
12.324,0.03,-0.44,0.32,0.55
12.334,0.17,-0.11,-0.41,0.46
12.344,0.52,0.46,-0.42,0.81
12.354,0.62,0.52,0.04,0.81
12.365,0.22,-0.00,0.08,0.24
12.375,-0.09,-0.14,-0.24,0.30
12.385,-0.23,-0.28,0.18,0.40
12.395,-0.30,0.05,0.10,0.32
12.405,-0.30,0.29,0.09,0.43
12.415,-0.09,0.40,-0.21,0.46
12.425,0.11,0.00,-0.00,0.11
12.435,0.14,-0.23,-0.28,0.39
12.445,0.06,-0.36,0.01,0.37
12.455,0.10,-0.49,0.16,0.53
12.465,0.24,-0.12,-0.43,0.51
12.476,0.48,0.41,-0.30,0.70
12.486,0.62,0.55,-0.10,0.83
12.496,0.24,0.07,0.12,0.28
12.506,-0.32,0.01,-0.18,0.36
12.516,-0.25,-0.35,0.22,0.48
12.526,-0.27,0.02,-0.07,0.28
12.536,-0.15,0.13,0.32,0.37
12.546,0.11,0.27,-0.25,0.38
12.556,-0.08,-0.03,-0.17,0.19
12.566,0.15,-0.26,-0.01,0.30
12.576,-0.00,-0.23,-0.10,0.25
12.587,0.04,-0.30,0.04,0.31
12.597,0.31,-0.15,-0.34,0.48
12.606,0.42,0.20,-0.21,0.51
12.617,0.49,0.64,-0.27,0.85
12.627,0.54,0.07,0.03,0.55
12.637,-0.33,-0.00,0.14,0.36
12.647,-0.38,-0.11,-0.04,0.40
12.657,-0.40,-0.11,0.19,0.45
12.667,-0.25,0.29,0.01,0.38
12.677,0.18,0.26,-0.01,0.32
12.687,0.03,-0.18,-0.20,0.27
12.697,0.07,-0.38,-0.28,0.48
12.708,0.01,-0.32,0.46,0.57
12.718,0.08,-0.16,-0.35,0.39
12.728,0.36,-0.23,-0.49,0.65
12.738,0.36,0.18,0.06,0.41
12.748,0.63,0.44,-0.31,0.83
12.758,0.56,0.20,-0.41,0.72
12.768,-0.41,-0.11,0.85,0.95
12.778,-0.39,0.16,-0.53,0.68
12.788,-0.76,0.51,0.52,1.05
12.798,-0.18,0.22,-0.02,0.28
12.808,0.24,-0.19,-0.19,0.35
12.818,0.40,-0.63,0.01,0.74
12.829,0.15,-0.40,-0.37,0.56
12.839,-0.16,-0.22,0.42,0.50
12.849,-0.09,0.05,-0.33,0.34
12.859,0.16,0.04,-0.37,0.41
12.869,0.46,0.10,0.05,0.48
12.879,0.64,0.35,-0.42,0.85
12.889,0.60,0.11,-0.22,0.65
12.899,-0.18,-0.14,0.84,0.87
12.909,-0.41,0.10,-0.58,0.71
12.919,-0.82,0.49,0.36,1.02
12.929,-0.22,0.29,0.27,0.45
12.939,0.03,-0.07,-0.27,0.28
12.949,0.26,-0.52,-0.15,0.61
12.960,0.41,-0.59,-0.11,0.73
12.970,-0.05,-0.32,0.14,0.35
12.980,-0.09,-0.04,-0.10,0.14
12.990,0.19,0.15,-0.45,0.51
13.000,0.47,0.11,-0.10,0.49
13.010,0.61,0.29,-0.25,0.72
13.020,0.58,0.12,-0.23,0.63
13.030,-0.14,0.03,0.54,0.56
13.040,-0.46,0.07,-0.18,0.50
13.050,-0.74,0.46,0.07,0.87
13.060,-0.29,0.29,0.24,0.48
13.071,0.19,-0.08,-0.08,0.22
13.081,0.20,-0.50,-0.25,0.59
13.091,0.32,-0.64,-0.18,0.74
13.101,-0.02,-0.32,0.17,0.37
13.111,-0.09,-0.06,-0.01,0.11
13.121,0.14,0.14,-0.52,0.55
13.131,0.48,0.23,-0.27,0.60
13.141,0.86,0.16,0.23,0.90
13.151,0.29,0.03,-0.27,0.40
13.161,-0.16,0.00,0.05,0.17
13.172,-0.40,0.24,0.14,0.49
13.182,-0.64,0.54,0.08,0.84
13.192,-0.32,0.03,0.09,0.33
13.202,0.12,-0.26,-0.17,0.33
13.212,0.25,-0.30,-0.22,0.45
13.222,0.27,-0.31,-0.05,0.42
13.232,0.07,-0.27,-0.14,0.32
13.242,-0.07,-0.18,0.06,0.20
13.252,0.23,0.00,-0.18,0.30
13.262,0.51,0.40,-0.47,0.80
13.272,0.76,0.10,0.15,0.78
13.282,0.09,-0.01,0.05,0.10
13.293,-0.22,0.04,-0.14,0.27
13.302,-0.57,0.28,-0.02,0.64
13.313,-0.41,0.42,0.42,0.72
13.323,-0.15,0.09,-0.07,0.19
13.333,0.13,-0.18,-0.23,0.32
13.343,0.24,-0.36,-0.05,0.43
13.353,0.13,-0.32,-0.21,0.41
13.363,0.09,-0.33,-0.06,0.35
13.373,-0.04,-0.09,-0.18,0.20
13.383,0.23,0.06,0.18,0.30
13.393,0.58,0.46,-0.62,0.96
13.403,0.50,0.01,0.58,0.76
13.414,0.19,0.18,-0.61,0.66
13.424,-0.33,-0.06,0.29,0.44
13.434,-0.40,0.29,-0.04,0.50
13.444,-0.36,0.22,0.26,0.49
13.454,-0.11,0.09,-0.05,0.15
13.464,0.01,-0.12,-0.31,0.33
13.474,0.22,-0.37,-0.02,0.43
13.484,0.11,-0.18,-0.24,0.32
13.494,0.16,-0.27,-0.08,0.32
13.504,0.08,-0.19,-0.13,0.24
13.514,0.26,0.00,-0.02,0.27
13.524,0.58,0.26,-0.06,0.64
13.534,0.41,0.22,-0.02,0.46
13.545,0.11,0.10,-0.14,0.20
13.555,-0.38,0.11,-0.10,0.41
13.565,-0.48,0.13,0.42,0.65
13.575,-0.28,0.26,-0.02,0.38
13.585,-0.10,0.14,-0.12,0.21
13.595,0.21,-0.22,-0.11,0.33
13.605,0.17,-0.45,-0.14,0.50
13.615,0.06,-0.20,-0.22,0.30
13.625,0.09,-0.15,-0.04,0.18
13.635,0.13,-0.14,-0.17,0.25
13.645,0.30,0.07,-0.01,0.31
13.655,0.59,0.34,0.09,0.68
13.666,0.41,0.22,-0.22,0.51
13.676,-0.02,0.07,-0.07,0.10
13.686,-0.31,-0.11,0.03,0.33
13.696,-0.44,-0.01,0.28,0.52
13.706,-0.36,0.39,-0.03,0.53
13.716,-0.03,0.17,-0.04,0.18
13.726,0.09,-0.22,-0.27,0.35
13.736,0.22,-0.41,-0.10,0.48
13.746,0.15,-0.26,-0.03,0.30
13.756,0.07,-0.08,-0.35,0.36
13.767,0.22,-0.23,0.05,0.33
13.777,0.37,0.09,-0.11,0.39
13.787,0.45,0.30,0.17,0.57
13.797,0.38,0.30,-0.34,0.59
13.807,-0.12,0.09,0.04,0.16
13.817,-0.54,0.13,0.06,0.56
13.827,-0.39,0.05,0.32,0.50
13.837,-0.21,0.31,-0.16,0.41
13.847,0.06,0.11,-0.10,0.16
13.857,0.29,-0.43,-0.08,0.52
13.867,0.12,-0.39,-0.32,0.52
13.877,0.00,-0.19,-0.02,0.19
13.887,0.08,-0.06,-0.12,0.16
13.897,0.16,-0.18,-0.11,0.27
13.908,0.42,0.13,-0.08,0.45
13.918,0.50,0.27,0.18,0.59
13.928,0.39,0.26,-0.42,0.63
13.938,-0.21,0.17,0.10,0.29
13.948,-0.47,-0.02,0.25,0.53
13.958,-0.43,0.04,0.01,0.43
13.968,-0.29,0.36,-0.08,0.47
13.978,0.13,0.17,0.03,0.22
13.989,0.26,-0.32,-0.10,0.42
13.999,0.06,-0.48,-0.27,0.55
14.009,0.30,-0.16,0.12,0.36
14.019,-0.11,-0.15,-0.18,0.26
14.029,0.18,-0.12,-0.30,0.38
14.039,0.55,0.22,0.08,0.60
14.049,0.38,0.26,0.17,0.49
14.059,0.26,0.20,-0.51,0.60
14.069,-0.16,0.02,0.22,0.28
14.079,-0.28,-0.16,0.18,0.37
14.089,-0.35,-0.11,0.02,0.37
14.099,-0.27,0.43,-0.15,0.53
14.109,0.05,0.35,0.09,0.37
14.119,0.15,-0.19,-0.27,0.36
14.129,0.13,-0.63,-0.14,0.65
14.140,0.15,-0.36,-0.19,0.43
14.150,0.12,-0.03,-0.03,0.12
14.160,0.22,0.11,-0.01,0.24
14.170,0.57,0.21,-0.24,0.65
14.180,0.35,0.30,0.13,0.48
14.190,0.17,0.16,-0.17,0.29
14.200,-0.15,-0.03,-0.15,0.21
14.210,-0.35,-0.22,0.25,0.49
14.220,-0.31,-0.05,0.15,0.35
14.230,-0.34,0.32,-0.12,0.48
14.241,0.03,0.26,-0.05,0.27
14.251,0.10,-0.06,-0.20,0.23
14.261,0.27,-0.49,-0.16,0.58
14.271,0.14,-0.37,-0.07,0.40
14.281,0.20,-0.04,-0.14,0.25
14.291,0.25,0.18,0.02,0.31
14.301,0.45,0.22,0.02,0.50
14.311,0.25,0.10,-0.19,0.33
14.321,0.06,0.01,-0.15,0.16
14.331,-0.16,0.03,-0.00,0.16
14.341,-0.27,-0.05,0.20,0.34
14.351,-0.20,0.03,0.15,0.25
14.361,-0.22,0.34,-0.17,0.44
14.371,0.05,0.16,-0.04,0.17
14.382,0.10,-0.14,-0.14,0.22
14.392,0.07,-0.38,-0.16,0.42
14.402,0.21,-0.31,-0.17,0.41
14.412,0.18,-0.12,0.09,0.23
14.422,0.24,0.22,-0.15,0.36
14.432,0.55,0.37,-0.27,0.72
14.442,0.28,0.04,0.27,0.39
14.452,0.08,-0.03,-0.29,0.30
14.462,-0.13,-0.18,-0.12,0.25
14.472,-0.25,0.01,0.34,0.42
14.483,-0.26,0.18,0.10,0.33
14.493,-0.28,0.26,-0.18,0.42
14.503,0.00,0.09,-0.05,0.11
14.513,0.07,-0.10,-0.19,0.23
14.523,0.15,-0.22,-0.23,0.35
14.533,0.22,-0.42,-0.02,0.48
14.543,0.07,-0.25,0.06,0.27
14.553,0.40,0.21,-0.32,0.55
14.563,0.59,0.53,-0.24,0.83
14.573,0.17,0.24,-0.42,0.51
14.583,0.00,-0.00,0.19,0.19
14.596,-0.38,-0.38,-0.28,0.61
