time,ax,ay,az,atotal
0.000,-0.00,-0.46,0.20,0.50
0.010,-0.65,0.41,0.15,0.78
0.020,-0.12,0.71,-0.73,1.03
0.030,-0.03,0.03,1.38,1.38
0.040,0.07,-0.29,-1.49,1.52
0.050,-0.11,-0.67,0.77,1.03
0.061,0.56,-0.38,-0.16,0.69
0.071,-0.20,0.14,-0.60,0.65
0.081,0.45,0.19,0.55,0.74
0.091,0.50,0.37,-0.13,0.63
0.101,-0.03,0.41,-0.32,0.52
0.111,-0.09,-0.04,0.28,0.30
0.121,-0.21,-0.22,0.02,0.31
0.131,-0.38,-0.19,0.49,0.65
0.141,-0.38,0.41,-0.26,0.61
0.151,-0.22,0.38,0.27,0.51
0.161,-0.02,-0.14,-0.59,0.60
0.171,-0.03,-0.39,-0.19,0.43
0.182,0.21,-0.49,0.80,0.96
0.192,0.22,-0.14,-0.92,0.95
0.202,0.32,-0.02,0.56,0.65
0.212,0.14,0.34,0.14,0.40
0.222,0.15,0.22,-0.19,0.33
0.232,-0.01,0.24,-0.44,0.50
0.242,-0.09,-0.12,0.14,0.20
0.252,0.00,-0.09,0.12,0.15
0.262,-0.29,0.28,0.73,0.83
0.272,-0.60,0.32,-0.52,0.86
0.282,-0.27,-0.02,-0.36,0.45
0.292,0.21,-0.09,-0.03,0.23
0.302,-0.02,-0.11,0.59,0.60
0.313,0.35,-0.50,-0.91,1.09
0.323,-0.24,-0.41,0.04,0.48
0.333,0.30,0.36,0.15,0.49
0.343,0.56,0.30,0.40,0.75
0.353,0.24,0.25,-0.74,0.82
0.363,0.21,-0.08,0.23,0.32
0.373,-0.19,-0.33,-0.15,0.41
0.383,-0.43,0.02,-0.13,0.45
0.393,-0.31,0.90,1.06,1.42
0.403,-0.52,0.16,-0.74,0.92
0.413,-0.37,-0.22,-0.89,0.99
0.424,0.17,0.02,1.41,1.42
0.434,0.36,-0.33,-0.69,0.85
0.444,0.19,-0.52,-0.31,0.63
0.454,-0.14,0.06,0.39,0.41
0.464,0.61,0.12,0.10,0.63
0.474,0.41,0.25,-0.09,0.49
0.484,-0.28,0.19,-0.04,0.33
0.494,0.13,0.15,0.09,0.21
0.504,-0.02,-0.14,0.44,0.46
0.514,-0.10,-0.21,-0.41,0.47
0.524,-0.98,0.49,0.34,1.14
0.534,-0.22,0.63,0.11,0.67
0.545,-0.06,-0.36,-0.07,0.37
0.555,0.04,-0.47,-0.49,0.68
0.565,0.53,-0.50,0.10,0.73
0.575,0.19,-0.17,-0.01,0.25
0.585,-0.38,0.13,-0.19,0.44
0.595,0.49,0.24,0.01,0.55
0.605,0.13,0.14,0.59,0.62
0.615,0.69,0.08,-0.79,1.06
0.625,-0.23,-0.06,0.28,0.37
0.635,0.02,-0.19,0.08,0.20
0.645,-1.06,0.20,0.35,1.14
0.655,-0.31,0.61,-0.18,0.71
0.666,-0.12,0.45,0.23,0.52
0.676,-0.18,-0.26,-0.35,0.47
0.686,0.23,-0.26,-0.34,0.48
0.696,0.62,-0.76,0.94,1.36
0.706,-0.48,0.03,-1.10,1.20
0.716,0.42,-0.40,0.50,0.77
0.726,0.11,0.28,0.21,0.36
0.736,0.63,0.31,-0.41,0.81
0.746,-0.01,0.54,0.05,0.55
0.756,-0.09,0.05,0.09,0.13
0.767,-0.45,-0.08,-0.16,0.49
0.777,-0.78,0.02,1.06,1.31
0.787,-0.36,0.55,-1.03,1.22
0.797,-0.10,0.15,0.36,0.41
0.807,0.43,0.01,0.32,0.53
0.817,-0.26,-0.37,-0.60,0.75
0.827,0.42,-0.67,-0.39,0.88
0.837,0.08,-0.25,0.51,0.58
0.847,0.17,-0.11,-0.29,0.36
0.857,0.23,0.28,0.21,0.42
0.867,0.32,0.39,0.22,0.55
0.877,0.20,0.37,-0.54,0.68
0.887,-0.06,-0.11,0.43,0.44
0.898,-0.37,-0.32,0.06,0.49
0.908,-0.83,0.11,0.06,0.84
0.918,-0.23,0.54,-0.02,0.59
0.928,-0.27,0.46,0.29,0.61
0.938,0.43,-0.33,-0.38,0.66
0.948,-0.09,-0.44,0.04,0.45
0.958,0.53,-0.38,-0.35,0.74
0.968,-0.25,-0.09,0.10,0.28
0.978,0.14,0.15,-0.01,0.20
0.988,0.41,0.14,0.34,0.55
0.998,0.29,0.26,-0.53,0.66
1.008,0.15,0.45,0.04,0.48
1.018,-0.21,-0.05,0.54,0.58
1.029,-0.43,-0.42,-0.51,0.79
1.039,-0.51,0.02,0.52,0.72
1.049,-0.18,0.47,-0.24,0.56
1.059,-0.17,0.51,0.16,0.56
1.069,0.33,-0.22,-0.05,0.40
1.079,0.02,-0.62,-0.52,0.80
1.089,-0.01,-0.46,0.26,0.53
1.099,0.13,-0.04,-0.12,0.18
1.109,-0.00,0.12,0.36,0.38
1.119,0.49,0.18,-0.20,0.55
1.129,0.39,0.30,-0.25,0.55
1.140,0.08,0.22,-0.07,0.25
1.150,-0.24,-0.10,0.36,0.44
1.160,-0.47,-0.27,0.20,0.58
1.170,-0.47,0.11,-0.38,0.61
1.180,-0.40,0.39,0.31,0.64
1.190,0.23,0.33,-0.09,0.41
1.200,-0.03,-0.10,-0.06,0.12
1.210,0.12,-0.58,-0.23,0.64
1.220,0.19,-0.48,0.22,0.56
1.230,-0.08,0.07,-0.43,0.44
1.240,0.55,0.33,0.19,0.67
1.250,0.19,0.33,0.22,0.44
1.261,0.14,0.08,-0.23,0.28
1.271,-0.16,-0.03,-0.05,0.17
1.281,0.01,0.06,-0.40,0.41
1.291,-0.36,-0.17,1.08,1.15
1.301,-0.52,0.15,-0.47,0.72
1.311,-0.56,0.37,-0.05,0.67
1.321,0.13,0.21,0.04,0.25
1.331,0.41,-0.33,-0.40,0.66
1.341,-0.08,-0.41,0.16,0.45
1.351,0.24,-0.41,-0.08,0.48
1.361,-0.12,-0.08,-0.24,0.28
1.371,0.37,0.27,-0.11,0.47
1.382,0.26,0.54,0.54,0.81
1.392,0.36,0.22,-0.45,0.62
1.402,-0.15,0.05,-0.16,0.22
1.412,-0.29,-0.18,0.70,0.78
1.422,-0.50,0.09,-0.43,0.66
1.432,-0.25,-0.11,0.35,0.44
1.442,-0.26,0.24,-0.12,0.37
1.452,0.27,0.13,-0.06,0.31
1.462,0.06,-0.13,-0.41,0.44
1.472,0.05,-0.24,0.13,0.28
1.482,0.04,-0.33,-0.04,0.33
1.493,-0.07,-0.19,-0.02,0.21
1.503,0.27,0.21,-0.10,0.35
1.513,0.57,0.53,-0.11,0.78
1.523,0.01,0.32,0.07,0.33
1.533,-0.03,-0.11,-0.15,0.19
1.543,-0.48,-0.16,0.16,0.53
1.553,-0.12,-0.07,-0.08,0.15
1.563,-0.42,0.33,0.39,0.66
1.573,-0.10,0.26,-0.11,0.30
1.583,0.01,-0.20,-0.01,0.20
1.593,0.06,-0.23,-0.27,0.36
1.603,-0.13,-0.18,-0.00,0.22
1.613,0.17,-0.20,-0.22,0.34
1.624,-0.00,-0.23,0.20,0.30
1.634,0.33,0.03,-0.26,0.42
1.644,0.53,0.53,-0.13,0.76
1.654,-0.03,0.31,0.55,0.63
1.664,0.19,0.07,-0.91,0.93
1.674,-0.33,-0.17,0.62,0.73
1.684,-0.15,-0.27,-0.13,0.34
1.694,-0.59,0.28,0.21,0.68
1.704,-0.13,0.33,0.51,0.62
1.714,-0.13,-0.01,-0.59,0.61
1.724,-0.15,-0.30,0.05,0.34
1.734,0.53,-0.19,-0.25,0.62
1.745,-0.31,-0.17,0.23,0.42
1.755,0.35,-0.31,0.01,0.47
1.765,0.22,0.08,-0.13,0.27
1.775,0.23,0.39,-0.21,0.51
1.785,0.23,0.39,0.59,0.75
1.795,0.08,0.21,-0.24,0.33
1.805,-0.43,-0.23,-0.30,0.57
1.815,-0.26,-0.42,0.59,0.77
1.825,-0.42,0.43,-0.10,0.61
1.835,-0.28,0.36,0.19,0.49
1.846,0.11,0.04,-0.22,0.25
1.855,-0.07,-0.36,0.05,0.37
1.866,0.28,-0.44,-0.33,0.61
1.876,-0.14,-0.21,0.06,0.26
1.886,-0.04,-0.05,-0.05,0.08
1.896,0.46,-0.11,0.36,0.60
1.906,0.35,0.41,-0.70,0.89
1.916,0.38,0.27,0.46,0.65
1.926,0.05,0.35,-0.07,0.36
1.936,-0.35,-0.10,-0.20,0.42
1.946,-0.49,-0.36,0.25,0.66
1.956,-0.45,0.17,0.33,0.58
1.966,-0.13,0.43,-0.31,0.55
1.977,-0.23,0.25,-0.27,0.43
1.987,0.19,-0.36,0.44,0.60
1.997,0.29,-0.37,-0.68,0.83
2.007,0.05,-0.29,0.18,0.35
2.017,-0.10,0.05,-0.17,0.20
2.027,0.40,-0.03,-0.01,0.41
2.037,0.43,0.29,0.13,0.53
2.047,0.28,0.32,-0.19,0.46
2.057,-0.03,0.07,0.21,0.23
2.067,-0.28,-0.05,-0.40,0.49
2.077,-0.71,-0.16,0.58,0.93
2.087,0.11,-0.01,0.26,0.28
2.098,-0.50,0.49,-0.28,0.76
2.108,-0.05,0.32,0.24,0.40
2.118,0.23,-0.39,-0.40,0.61
2.128,0.08,-0.50,0.01,0.51
2.138,0.06,-0.19,-0.27,0.33
2.148,-0.05,-0.13,0.13,0.19
2.158,0.30,0.13,-0.47,0.57
2.168,0.30,0.22,0.99,1.06
2.178,0.45,0.26,-0.70,0.87
2.188,-0.15,0.13,-0.01,0.20
2.198,-0.16,-0.08,0.19,0.26
2.209,-0.47,-0.10,0.14,0.50
2.218,-0.49,0.06,0.46,0.67
2.229,-0.24,0.38,-0.34,0.57
2.239,0.01,0.12,-0.04,0.13
2.249,0.23,-0.21,0.09,0.32
2.259,0.10,-0.59,0.07,0.60
2.269,-0.15,-0.25,-0.69,0.75
2.279,0.09,-0.02,0.30,0.31
2.289,0.53,0.27,-0.04,0.59
2.299,0.60,0.21,0.30,0.70
2.309,-0.02,0.13,-0.26,0.29
2.319,0.01,0.03,0.21,0.21
2.329,-0.62,0.03,-0.07,0.62
2.340,-0.55,0.18,0.27,0.64
2.350,-0.20,0.39,-0.00,0.44
2.360,-0.11,0.37,0.02,0.38
2.370,-0.01,-0.35,-0.14,0.38
2.380,0.28,-0.58,0.01,0.64
2.390,0.10,-0.35,0.01,0.36
2.400,0.16,-0.17,-0.05,0.24
2.410,-0.14,0.04,-0.10,0.18
2.420,0.42,0.32,0.05,0.53
2.430,0.39,0.45,-0.26,0.65
2.440,0.17,0.05,0.10,0.20
2.451,-0.06,-0.12,-0.05,0.14
2.461,-0.46,-0.25,0.02,0.52
2.471,-0.40,0.27,0.28,0.56
2.481,-0.43,0.43,-0.01,0.60
2.491,-0.18,0.26,-0.32,0.45
2.501,0.13,-0.18,0.52,0.56
2.511,0.19,-0.41,-0.54,0.70
2.521,-0.02,-0.47,-0.15,0.49
2.531,0.18,-0.22,0.30,0.42
2.541,0.25,-0.02,-0.51,0.57
2.551,0.27,0.38,0.23,0.52
2.561,0.65,0.36,0.06,0.74
2.571,-0.21,0.20,-0.04,0.29
2.581,-0.00,-0.19,-0.17,0.25
2.592,-0.74,-0.10,0.46,0.88
2.602,-0.33,0.32,0.06,0.47
2.612,-0.45,0.45,-0.16,0.66
2.622,0.23,0.05,0.39,0.46
2.632,0.30,-0.41,-0.74,0.89
2.642,-0.19,-0.37,-0.04,0.42
2.652,0.13,-0.17,-0.06,0.22
2.662,-0.13,-0.17,0.03,0.22
2.672,0.29,-0.08,-0.22,0.37
2.682,0.54,0.26,0.46,0.75
2.693,0.31,0.45,-0.63,0.83
2.702,-0.00,0.06,-0.01,0.07
2.713,-0.12,-0.05,0.52,0.54
2.723,-0.49,-0.06,-0.42,0.65
2.733,-0.56,0.14,0.47,0.74
2.743,-0.19,0.51,-0.30,0.62
2.753,-0.03,0.01,0.28,0.28
2.763,0.24,-0.19,-0.45,0.55
2.773,0.03,-0.43,0.40,0.59
2.783,-0.14,-0.25,-0.67,0.73
2.793,0.02,-0.11,-0.08,0.14
2.803,0.50,-0.02,0.71,0.87
2.813,0.43,0.39,-0.47,0.75
2.823,0.20,0.22,-0.01,0.30
2.834,0.05,0.17,0.04,0.19
2.844,-0.33,-0.08,0.28,0.44
2.854,-0.58,-0.09,0.30,0.66
2.864,-0.38,0.29,-0.32,0.57
2.874,-0.33,0.41,0.46,0.70
2.884,0.37,-0.06,-0.48,0.61
2.894,0.05,-0.40,-0.14,0.43
2.904,0.03,-0.39,0.15,0.42
2.914,-0.08,-0.09,-0.16,0.20
2.924,0.14,-0.32,0.16,0.39
2.935,0.26,0.21,0.02,0.34
2.945,0.61,0.37,-0.58,0.92
2.955,0.01,0.30,0.36,0.47
2.965,0.10,0.25,-0.11,0.29
2.975,-0.56,-0.16,-0.01,0.59
2.985,-0.33,-0.16,0.27,0.45
2.995,-0.49,0.25,0.26,0.61
3.005,-0.01,0.39,-0.63,0.74
3.015,0.07,-0.13,0.39,0.42
3.025,0.05,-0.41,-0.09,0.42
3.035,-0.02,-0.28,-0.50,0.57
3.045,-0.03,-0.06,0.32,0.32
3.055,0.30,0.04,-0.28,0.41
3.066,0.63,0.22,-0.22,0.71
3.076,0.27,0.22,0.30,0.46
3.086,0.20,0.29,-0.28,0.45
3.096,-0.23,0.02,0.51,0.56
3.106,-0.84,-0.23,-0.49,1.00
3.116,0.06,-0.06,0.33,0.34
3.126,-0.24,0.21,0.50,0.59
3.136,-0.45,0.55,-0.66,0.97
3.146,0.35,0.07,0.20,0.41
3.156,0.17,-0.54,0.04,0.57
3.166,-0.29,-0.41,-0.68,0.84
3.177,0.18,-0.19,0.53,0.59
3.187,0.11,0.22,-0.60,0.65
3.197,0.45,0.03,0.40,0.61
3.207,0.49,0.23,-0.26,0.60
3.217,0.07,0.23,-0.04,0.24
3.227,-0.23,0.12,0.07,0.27
3.237,-0.35,-0.18,-0.00,0.40
3.247,-0.46,-0.04,0.37,0.59
3.257,-0.29,0.26,-0.40,0.55
3.267,-0.28,0.25,0.63,0.73
3.278,0.38,0.10,-0.59,0.71
3.287,-0.08,-0.54,0.17,0.57
3.298,0.16,-0.35,-0.55,0.67
3.308,0.07,-0.10,0.33,0.36
3.318,0.32,0.22,-0.13,0.40
3.328,0.21,0.35,0.42,0.59
3.338,0.41,0.13,-0.71,0.83
3.348,-0.10,0.11,-0.28,0.32
3.358,-0.09,-0.12,1.13,1.14
3.368,-0.61,0.06,-0.88,1.07
3.378,-0.05,-0.47,0.96,1.07
3.388,-0.47,0.52,-0.53,0.88
3.398,-0.15,0.32,-0.04,0.36
3.408,0.42,0.00,-0.16,0.45
3.418,-0.27,-0.15,0.00,0.31
3.429,0.27,-0.51,-0.21,0.61
3.439,0.03,-0.29,-0.11,0.31
3.449,0.29,0.13,0.05,0.32
3.459,0.33,0.47,0.32,0.66
3.469,0.38,0.22,-0.34,0.55
3.479,-0.30,0.10,0.04,0.32
3.489,0.01,-0.23,-0.14,0.27
3.499,-0.23,-0.19,0.02,0.30
3.509,-0.43,0.13,0.68,0.82
3.519,-0.23,0.36,-0.26,0.50
3.529,-0.09,0.13,-0.17,0.23
3.539,-0.02,0.17,-0.10,0.20
3.550,-0.05,-0.11,0.07,0.14
3.560,0.31,-0.42,-0.35,0.63
3.570,-0.03,-0.23,0.20,0.30
3.580,0.39,0.01,-0.17,0.43
3.590,0.28,0.28,0.23,0.46
3.600,0.25,0.46,0.09,0.53
3.610,0.06,-0.16,-0.20,0.27
3.620,-0.38,-0.22,-0.23,0.50
3.630,0.06,-0.11,0.39,0.41
3.640,-0.62,0.36,0.32,0.79
3.650,-0.36,0.33,-0.39,0.62
3.661,-0.25,0.09,0.10,0.28
3.671,0.17,-0.16,-0.20,0.31
3.681,0.37,-0.28,-0.34,0.57
3.691,0.10,-0.07,0.20,0.23
3.701,0.19,-0.20,-0.10,0.29
3.711,-0.08,-0.07,0.07,0.13
3.721,0.40,0.27,-0.04,0.48
3.731,0.20,0.57,0.19,0.63
3.741,0.22,-0.01,-0.09,0.24
3.751,-0.25,-0.45,-0.31,0.61
3.761,-0.14,-0.42,0.20,0.49
3.771,-0.40,0.42,0.25,0.63
3.782,-0.69,0.83,-0.07,1.08
3.792,-0.00,0.21,0.02,0.21
3.802,0.16,-0.45,-0.31,0.57
3.812,0.01,-0.51,0.02,0.51
3.822,0.20,-0.14,-0.51,0.57
3.832,0.11,-0.10,0.47,0.49
3.842,0.27,0.16,-0.38,0.50
3.852,0.26,0.18,0.14,0.35
3.862,0.28,0.27,-0.05,0.39
3.872,-0.04,0.38,-0.07,0.39
3.882,-0.16,-0.30,0.18,0.39
3.893,-0.16,-0.41,-0.21,0.49
3.903,-0.73,0.21,0.50,0.91
3.913,-0.13,0.63,0.05,0.64
3.923,0.10,0.30,-0.32,0.45
3.933,-0.08,-0.27,0.18,0.34
3.943,0.01,-0.53,-0.32,0.62
3.953,-0.10,-0.28,0.03,0.30
3.963,0.03,0.01,-0.03,0.04
3.973,0.40,-0.03,-0.14,0.43
3.983,0.32,0.19,0.47,0.60
3.993,0.37,0.22,-0.33,0.55
4.003,0.21,0.25,-0.43,0.54
4.014,0.00,-0.09,0.45,0.46
4.023,-0.33,-0.27,-0.21,0.48
4.034,-0.67,0.11,0.13,0.69
4.044,-0.53,0.67,-0.04,0.85
4.054,0.28,0.82,-0.26,0.90
4.064,-0.12,-0.44,1.28,1.36
4.074,-0.14,-0.86,-1.86,2.05
4.084,0.06,-0.58,0.58,0.82
4.094,0.45,0.16,0.04,0.48
4.104,0.03,0.28,-0.27,0.39
4.114,0.46,0.07,0.49,0.68
4.124,0.12,0.26,0.02,0.28
4.134,0.01,0.06,-0.48,0.49
4.145,0.03,-0.03,0.17,0.18
4.155,-0.38,-0.25,0.21,0.50
4.165,-0.44,0.11,0.00,0.46
4.175,-0.43,0.61,-0.02,0.75
4.185,-0.29,0.54,-0.23,0.65
4.195,0.24,-0.22,0.57,0.66
4.205,0.43,-0.82,-0.60,1.11
4.215,-0.05,-0.58,-0.36,0.68
4.225,0.29,0.02,0.30,0.42
4.235,0.05,0.37,-0.09,0.38
4.245,0.31,0.27,0.06,0.41
4.255,0.42,0.16,0.08,0.46
4.266,-0.00,0.22,-0.40,0.45
4.276,-0.37,-0.03,0.06,0.38
4.286,-0.13,-0.32,0.28,0.44
4.296,-0.72,0.14,0.08,0.74
4.306,-0.10,0.58,-0.12,0.61
4.316,-0.15,0.18,0.35,0.42
4.326,-0.01,-0.22,-0.84,0.87
4.336,0.04,-0.57,0.35,0.67
4.346,0.21,-0.35,-0.22,0.46
4.356,0.18,-0.17,-0.25,0.35
4.366,0.20,0.25,0.52,0.61
4.377,0.44,0.42,-0.37,0.71
4.387,0.32,0.05,0.33,0.46
4.397,-0.04,0.05,-0.29,0.29
4.407,-0.19,-0.15,-0.03,0.24
4.417,-0.13,0.01,0.20,0.24
4.427,-1.06,0.26,0.57,1.23
4.437,-0.28,0.56,-0.64,0.90
4.447,0.07,0.09,0.27,0.29
4.457,0.41,-0.24,-0.19,0.51
4.467,-0.16,-0.42,-0.19,0.49
4.477,0.28,-0.63,0.02,0.69
4.488,0.02,-0.05,-0.20,0.21
4.498,0.25,0.33,0.33,0.53
4.508,0.48,0.39,-0.12,0.63
4.518,0.20,0.04,-0.10,0.23
4.528,0.01,0.09,-0.31,0.32
4.538,-0.18,-0.29,0.42,0.55
4.548,-0.45,0.09,-0.26,0.53
4.558,-0.66,0.46,0.73,1.08
4.568,-0.22,0.32,-0.54,0.66
4.578,-0.05,-0.08,-0.12,0.15
4.588,0.12,-0.26,0.40,0.49
4.598,0.23,-0.26,-0.89,0.96
4.608,0.39,-0.54,0.68,0.95
4.618,-0.20,-0.01,-0.50,0.54
4.629,0.22,-0.03,0.22,0.32
4.639,0.46,0.42,-0.06,0.63
4.649,0.05,0.40,-0.05,0.41
4.659,0.15,-0.00,-0.16,0.22
4.669,-0.20,-0.10,0.29,0.37
4.679,-0.75,0.27,0.25,0.83
4.689,-0.45,0.41,-0.15,0.63
4.699,0.25,-0.05,0.28,0.38
4.709,-0.05,-0.28,-0.53,0.60
4.719,0.14,-0.42,-0.08,0.45
4.729,-0.05,-0.05,0.33,0.34
4.739,-0.06,-0.13,-0.39,0.41
4.750,0.22,-0.20,-0.04,0.29
4.760,0.38,0.23,0.26,0.51
4.770,0.38,0.52,-0.16,0.67
4.780,0.24,0.15,-0.20,0.35
4.790,-0.10,-0.01,0.15,0.18
4.800,-0.53,-0.26,0.28,0.65
4.810,-0.50,0.25,0.20,0.59
4.820,-0.39,0.53,-0.11,0.67
4.830,0.19,-0.00,-0.01,0.19
4.840,0.03,-0.39,-0.15,0.42
4.851,0.06,-0.27,-0.38,0.47
4.861,-0.02,-0.06,0.58,0.58
4.871,0.05,-0.15,-0.76,0.77
4.881,0.15,-0.17,0.16,0.28
4.891,0.40,-0.01,0.38,0.55
4.901,0.26,0.46,-0.48,0.71
4.911,0.07,0.46,0.02,0.46
4.921,-0.07,-0.23,0.48,0.54
4.931,-0.40,-0.13,-0.42,0.60
4.941,-0.53,0.16,0.49,0.74
4.951,-0.16,0.55,-0.24,0.62
4.961,-0.00,0.03,0.09,0.10
4.971,-0.05,-0.35,-0.33,0.48
4.982,0.07,-0.44,0.08,0.45
4.992,0.14,-0.28,-0.26,0.41
5.002,-0.14,0.08,-0.14,0.21
5.012,0.38,0.06,0.25,0.46
5.022,0.36,0.20,0.09,0.42
5.032,0.24,0.21,-0.35,0.47
5.042,-0.01,0.31,0.02,0.31
5.052,-0.10,-0.14,0.12,0.21
5.062,-0.38,-0.27,0.29,0.55
5.072,-0.48,0.26,-0.13,0.56
5.082,-0.29,0.40,0.21,0.54
5.093,-0.04,0.19,-0.17,0.26
5.102,0.09,-0.28,-0.36,0.46
5.113,0.21,-0.63,0.16,0.68
5.123,-0.02,-0.00,-0.20,0.20
5.133,0.29,-0.04,-0.12,0.31
5.143,0.05,0.05,0.05,0.09
5.153,0.28,0.02,0.27,0.39
5.163,0.27,0.29,-0.49,0.63
5.173,0.06,0.35,0.17,0.39
5.183,-0.35,-0.02,-0.02,0.35
5.194,-0.19,-0.31,0.16,0.39
5.203,-0.55,0.21,0.36,0.69
5.214,-0.21,0.49,-0.44,0.69
5.224,0.17,0.12,0.02,0.21
5.234,0.01,-0.40,0.08,0.41
5.244,0.25,-0.59,-0.55,0.84
5.254,-0.19,-0.21,0.48,0.56
5.264,0.20,0.22,-0.32,0.44
5.274,0.05,0.16,0.25,0.30
5.284,0.41,0.01,0.16,0.44
5.294,0.28,0.33,-0.55,0.70
5.304,0.06,0.20,0.24,0.32
5.314,-0.31,0.01,-0.01,0.31
5.324,-0.49,-0.23,0.35,0.65
5.335,-0.35,0.08,0.23,0.43
5.345,-0.19,0.39,-0.42,0.61
5.355,0.12,0.02,0.24,0.27
5.365,0.05,-0.24,-0.28,0.37
5.375,0.11,-0.42,-0.08,0.44
5.385,0.08,-0.15,-0.11,0.21
5.395,0.03,0.10,0.09,0.14
5.405,0.38,0.33,0.02,0.50
5.415,0.53,0.15,-0.06,0.55
5.425,-0.01,0.10,-0.16,0.19
5.435,-0.17,0.02,-0.11,0.20
5.445,-0.20,-0.19,0.29,0.40
5.455,-0.29,-0.11,0.07,0.32
5.466,-0.54,0.27,0.16,0.63
5.476,-0.01,0.41,-0.17,0.44
5.486,-0.09,0.11,0.09,0.17
5.496,0.14,-0.20,-0.33,0.41
5.506,0.28,-0.43,0.17,0.54
5.516,-0.13,-0.45,-0.07,0.47
5.526,0.03,0.04,-0.28,0.28
5.536,0.40,0.42,0.60,0.84
5.546,0.21,0.54,-0.36,0.68
5.556,0.22,-0.02,-0.28,0.35
5.566,-0.09,-0.25,0.02,0.26
5.577,-0.18,-0.19,-0.14,0.29
5.587,-0.46,0.10,0.24,0.53
5.597,-0.28,0.36,0.36,0.58
5.607,-0.07,0.23,-0.41,0.47
5.617,-0.08,0.03,-0.28,0.29
5.627,-0.06,-0.10,0.32,0.34
5.637,0.25,-0.45,-0.29,0.59
5.647,-0.01,-0.32,-0.22,0.39
5.657,0.43,-0.02,0.11,0.45
5.667,0.41,0.31,0.28,0.58
5.677,-0.17,0.52,-0.26,0.60
5.687,0.24,-0.03,-0.00,0.25
5.697,-0.06,-0.15,-0.27,0.31
5.707,-0.25,-0.20,0.03,0.32
5.718,-0.14,0.21,0.29,0.39
5.728,-0.46,0.36,0.57,0.82
5.738,-0.22,0.15,-0.54,0.60
5.748,0.07,-0.20,-0.13,0.25
5.758,0.01,-0.23,0.19,0.29
5.768,0.16,-0.09,-0.61,0.64
5.778,0.02,-0.33,0.59,0.68
5.788,0.24,-0.11,-0.73,0.78
5.798,0.31,0.12,0.46,0.58
5.808,0.26,0.52,0.00,0.59
5.819,0.17,0.32,-0.51,0.63
5.829,-0.18,-0.19,0.33,0.42
5.839,-0.27,-0.16,-0.33,0.46
5.849,-0.37,-0.08,0.72,0.81
5.859,-0.27,0.24,-0.35,0.51
5.869,-0.08,0.22,0.03,0.24
5.879,0.10,-0.02,0.34,0.35
5.889,0.02,-0.21,-0.88,0.91
5.899,0.10,-0.26,0.52,0.59
5.909,-0.05,-0.09,-0.25,0.27
5.919,0.24,-0.26,-0.26,0.44
5.929,0.30,0.15,0.20,0.39
5.940,0.26,0.41,0.17,0.51
5.950,0.07,0.36,-0.50,0.62
5.960,0.07,-0.06,0.13,0.16
5.970,-0.32,-0.23,0.23,0.46
5.980,-0.31,-0.12,0.12,0.35
5.990,-0.36,0.37,0.21,0.56
6.000,-0.13,0.39,-0.25,0.48
6.010,-0.07,-0.04,-0.02,0.08
6.020,0.09,-0.37,0.02,0.38
6.030,0.08,-0.34,-0.08,0.36
6.040,-0.05,-0.19,-0.43,0.47
6.050,0.05,-0.13,0.19,0.23
6.061,0.64,0.13,-0.04,0.66
6.071,0.11,0.40,0.26,0.49
6.081,0.27,0.28,-0.27,0.47
6.091,-0.23,0.12,0.09,0.28
6.101,-0.20,-0.14,-0.03,0.24
6.111,-0.38,-0.22,0.45,0.63
6.121,-0.29,0.26,0.08,0.39
6.131,-0.18,0.39,-0.01,0.43
6.141,-0.17,0.07,0.15,0.24
6.151,0.22,-0.46,-0.63,0.81
6.161,0.07,-0.45,0.06,0.46
6.171,0.16,0.09,0.01,0.19
6.182,0.13,-0.04,0.03,0.14
6.192,0.15,-0.02,-0.14,0.21
6.202,0.54,0.28,0.09,0.61
6.212,0.05,0.29,-0.29,0.41
6.222,-0.03,0.21,0.03,0.21
6.232,-0.16,-0.07,0.12,0.21
6.242,-0.59,-0.21,0.41,0.75
6.252,-0.49,0.22,-0.34,0.63
6.262,-0.07,0.42,0.15,0.45
6.272,0.13,0.10,0.12,0.20
6.282,0.07,-0.59,-0.49,0.77
6.293,0.08,-0.55,-0.12,0.57
6.302,-0.02,-0.06,-0.07,0.09
6.313,0.16,0.09,0.04,0.19
6.323,0.32,0.17,-0.17,0.40
6.333,0.37,0.13,0.16,0.42
6.343,0.08,0.28,-0.15,0.32
6.353,-0.16,0.12,0.03,0.21
6.363,0.03,-0.18,-0.06,0.19
6.373,-0.71,-0.14,0.50,0.88
6.383,-0.55,0.52,-0.52,0.92
6.393,0.08,0.14,0.31,0.35
6.403,-0.07,0.35,-0.37,0.51
6.413,0.30,-0.53,0.33,0.70
6.424,-0.19,-0.59,-0.53,0.81
6.434,0.15,-0.28,0.11,0.33
6.444,0.24,0.05,0.23,0.33
6.454,0.44,0.26,-0.41,0.66
6.464,0.31,0.11,0.12,0.36
6.474,0.26,0.27,-0.26,0.46
6.484,-0.39,-0.19,0.16,0.46
6.494,0.12,0.15,-0.56,0.59
6.504,-0.85,-0.07,1.23,1.49
6.514,-0.34,0.51,-0.80,1.01
6.524,-0.14,0.33,0.24,0.44
6.534,0.05,0.03,-0.03,0.07
6.545,0.14,-0.63,-0.30,0.71
6.555,-0.14,-0.48,0.17,0.52
6.565,0.28,-0.18,-0.06,0.34
6.575,0.24,-0.01,-0.25,0.35
6.585,0.37,0.49,0.20,0.65
6.595,0.40,0.27,0.02,0.48
6.605,-0.02,-0.08,-0.63,0.63
6.615,-0.08,-0.37,0.62,0.73
6.625,-0.07,-0.08,-0.72,0.73
6.635,-0.75,0.31,0.89,1.21
6.645,-0.26,0.70,-0.23,0.79
6.656,-0.34,0.28,-0.40,0.59
6.666,0.08,-0.18,0.25,0.32
6.676,0.25,-0.23,-0.08,0.35
6.686,-0.06,-0.45,-0.12,0.47
6.696,0.29,-0.63,-0.08,0.70
6.706,0.11,-0.16,0.11,0.22
6.716,0.58,0.52,0.00,0.78
6.726,0.44,0.39,0.05,0.59
6.736,0.03,-0.07,-0.16,0.18
6.746,-0.42,-0.05,-0.22,0.48
6.756,-0.49,-0.19,0.33,0.62
6.766,-0.58,0.59,0.39,0.92
6.776,-0.11,0.53,0.05,0.54
6.786,-0.09,-0.09,-0.48,0.50
6.797,0.17,-0.50,-0.13,0.55
6.807,0.10,-0.17,0.55,0.58
6.817,0.18,-0.42,-0.68,0.82
6.827,-0.15,-0.28,-0.24,0.40
6.837,0.31,0.19,0.73,0.81
6.847,0.71,0.33,-0.38,0.87
6.857,0.30,0.08,-0.17,0.35
6.867,0.03,-0.09,0.06,0.11
6.877,-0.63,-0.23,0.05,0.67
6.887,-0.61,0.14,0.05,0.62
6.898,-0.21,0.89,0.03,0.92
6.907,-0.31,0.41,0.17,0.54
6.918,-0.22,-0.21,-0.49,0.58
6.928,0.48,-0.67,0.45,0.94
6.938,0.18,-0.47,-0.67,0.84
6.948,-0.07,-0.08,-0.02,0.11
6.958,0.40,-0.02,0.26,0.48
6.968,0.12,0.16,-0.09,0.22
6.978,0.38,0.19,-0.14,0.45
6.988,0.25,0.31,0.01,0.40
6.998,-0.13,-0.19,-0.23,0.33
7.008,-0.08,-0.10,0.01,0.13
7.019,-0.87,0.26,0.87,1.26
7.029,-0.36,0.66,-0.73,1.04
7.039,-0.18,0.22,0.35,0.45
7.049,0.02,-0.17,-0.15,0.23
7.059,0.26,-0.45,-0.15,0.54
7.069,0.10,-0.39,-0.08,0.41
7.079,-0.06,-0.04,-0.00,0.07
7.089,0.16,-0.07,-0.14,0.23
7.099,-0.01,0.20,0.39,0.44
7.109,1.08,0.11,-0.25,1.11
7.119,-0.02,0.19,0.25,0.32
7.130,-0.24,-0.09,-0.59,0.65
7.139,-0.35,0.00,0.25,0.43
7.150,-0.73,0.18,0.71,1.03
7.160,-0.45,0.50,-0.80,1.04
7.170,0.07,0.45,-0.06,0.46
7.180,0.24,-0.42,0.68,0.84
7.190,-0.11,-0.26,-0.82,0.87
7.200,0.36,-0.57,-0.67,0.95
7.210,-0.12,-0.20,1.40,1.42
7.220,0.33,0.37,-1.04,1.15
7.230,-0.16,0.17,0.84,0.87
7.241,1.05,-0.05,-0.57,1.20
7.251,-0.34,0.31,-0.19,0.50
7.261,0.35,-0.27,0.58,0.74
7.271,-1.06,0.16,-0.33,1.12
7.281,-0.51,-0.07,0.90,1.04
7.291,-0.05,0.30,-0.91,0.96
7.301,0.12,0.38,0.03,0.40
7.311,-0.11,-0.21,0.85,0.89
7.321,0.28,-0.46,-1.92,1.99
7.331,0.01,-0.47,1.75,1.81
7.341,0.23,-0.17,-1.36,1.39
7.351,-0.44,0.32,0.42,0.69
7.361,1.03,0.12,0.26,1.06
7.371,0.33,0.24,-0.27,0.49
7.382,-0.25,0.46,-0.04,0.53
7.392,0.25,-0.40,0.16,0.50
7.402,-0.69,-0.43,-0.21,0.84
7.412,-0.71,0.23,0.48,0.89
7.422,-0.13,0.63,-0.31,0.71
7.432,0.09,0.10,0.23,0.26
7.442,0.02,-0.19,-0.75,0.77
7.452,0.17,-0.57,0.37,0.70
7.462,0.09,-0.33,-0.47,0.58
7.472,0.10,0.02,0.07,0.12
7.482,0.47,0.43,0.07,0.64
7.493,0.59,0.20,-0.07,0.62
7.503,-0.60,0.23,0.03,0.65
7.513,0.47,-0.23,-0.33,0.61
7.523,-0.69,0.10,0.31,0.77
7.533,0.60,-0.08,-0.41,0.73
7.543,-0.70,-0.03,0.98,1.21
7.553,-0.97,0.44,-0.84,1.36
7.563,0.44,-0.01,0.32,0.54
7.573,0.06,-0.10,-0.36,0.38
7.583,-0.25,-0.19,0.21,0.38
7.593,0.70,-0.38,-0.67,1.04
7.603,-0.15,-0.30,0.42,0.54
7.614,0.50,0.36,-0.37,0.71
7.624,0.03,0.45,0.47,0.65
7.634,0.15,0.33,-0.22,0.42
7.644,-0.12,-0.32,0.07,0.35
7.654,-0.30,-0.30,-0.38,0.57
7.664,-0.14,-0.02,0.45,0.47
7.674,0.05,0.12,0.39,0.41
7.684,-0.72,0.48,-0.51,1.00
7.694,0.23,0.07,0.36,0.43
7.704,-0.19,-0.10,-0.07,0.22
7.714,0.27,-0.32,-0.59,0.72
7.724,0.32,-0.49,0.38,0.70
7.735,-0.34,0.12,-0.47,0.59
7.745,0.77,-0.04,0.62,0.99
7.755,-0.21,0.49,-0.30,0.61
7.765,0.46,0.15,0.11,0.49
7.775,0.01,-0.08,0.34,0.35
7.785,-0.33,-0.23,-0.67,0.78
7.795,-0.08,-0.34,0.62,0.71
7.805,-0.72,0.43,-0.05,0.84
7.815,-0.07,0.46,-0.11,0.48
7.825,-0.03,0.14,0.28,0.31
7.835,0.32,-0.23,-0.07,0.40
7.845,-0.07,-0.31,-0.31,0.45
7.856,0.13,-0.46,0.25,0.54
7.866,-0.28,-0.13,-0.38,0.49
7.876,0.65,0.13,0.11,0.67
7.886,0.10,0.43,-0.04,0.45
7.896,0.39,0.56,0.02,0.68
7.906,0.14,-0.04,-0.17,0.22
7.916,-0.32,-0.55,-0.02,0.64
7.926,-0.78,-0.17,0.24,0.83
7.936,-0.09,0.35,-0.07,0.36
7.946,-0.27,0.45,-0.04,0.52
7.956,0.28,-0.01,-0.14,0.31
7.966,-0.15,-0.21,-0.06,0.26
7.977,-0.13,-0.32,0.41,0.53
7.986,0.22,-0.35,-0.98,1.06
7.997,-0.40,-0.31,0.53,0.74
8.007,0.81,0.24,-0.90,1.24
8.017,0.61,0.47,0.75,1.07
8.027,0.15,0.19,-0.29,0.38
8.037,-0.30,0.17,-0.44,0.56
8.047,-0.56,-0.36,0.60,0.90
8.057,-0.22,-0.15,-0.10,0.28
8.067,-0.12,0.13,0.46,0.49
8.077,-0.36,0.67,-0.64,0.99
8.087,-0.14,-0.01,0.29,0.32
8.097,0.10,-0.29,-0.07,0.31
8.108,0.15,-0.51,-0.22,0.58
8.118,0.02,-0.37,0.02,0.37
8.128,0.04,-0.13,-0.12,0.18
8.138,0.27,0.14,-0.34,0.45
8.148,0.22,0.36,0.50,0.65
8.158,0.50,0.14,-0.16,0.54
8.168,-0.04,0.32,-0.51,0.61
8.178,-0.27,-0.16,0.44,0.54
8.188,-0.32,-0.17,0.11,0.38
8.198,-0.51,0.21,-0.06,0.55
8.208,-0.25,0.25,0.12,0.38
8.219,-0.26,0.34,-0.32,0.54
8.229,0.47,-0.46,0.06,0.66
8.239,-0.23,-0.41,-0.28,0.55
8.249,0.26,-0.05,-0.45,0.52
8.259,0.15,0.01,0.78,0.80
8.269,0.37,-0.11,-0.49,0.62
8.279,-0.16,0.33,0.11,0.39
8.289,0.93,0.15,-0.11,0.95
8.299,-0.63,0.16,0.32,0.73
8.309,-0.20,0.05,-0.81,0.83
8.319,0.08,-0.45,1.19,1.27
8.329,-0.73,0.24,-0.39,0.86
8.340,-0.55,0.44,0.09,0.71
8.350,0.50,0.13,0.08,0.52
8.360,-0.05,-0.44,-0.38,0.58
8.370,0.25,-0.56,-0.03,0.61
8.380,0.11,-0.25,-0.03,0.28
8.390,-0.39,0.05,-0.07,0.39
8.400,0.33,0.13,-0.23,0.43
8.410,0.40,0.13,0.53,0.67
8.420,0.57,0.07,-0.67,0.88
8.430,-0.04,0.17,0.02,0.17
8.440,-0.27,0.14,-0.31,0.43
8.450,-0.60,-0.28,0.97,1.18
8.461,-0.42,0.18,-0.79,0.91
8.471,-0.58,0.35,0.35,0.77
8.481,0.35,0.13,-0.03,0.38
8.491,0.15,0.02,-0.50,0.52
8.501,0.17,-0.74,0.66,1.01
8.511,0.08,-0.36,-1.12,1.18
8.521,-0.25,-0.09,0.86,0.90
8.531,0.42,0.53,-0.56,0.88
8.541,0.43,0.03,0.87,0.97
8.551,0.19,0.11,-1.24,1.26
8.561,0.12,0.21,0.38,0.45
8.571,-0.05,-0.21,0.47,0.52
8.582,-0.86,0.05,-0.36,0.94
8.592,-0.61,0.22,0.53,0.84
8.602,-0.05,0.42,-0.68,0.81
8.612,-0.04,0.13,0.24,0.28
8.622,0.60,-0.37,-0.23,0.74
8.632,-0.06,-0.63,-0.26,0.69
8.642,0.05,-0.35,-0.03,0.36
8.652,-0.06,0.18,-0.10,0.22
8.662,0.32,0.43,0.16,0.56
8.672,0.37,0.45,0.01,0.58
8.682,0.53,-0.29,-0.15,0.62
8.692,-0.41,-0.21,0.08,0.47
8.703,-0.55,-0.14,0.04,0.57
8.713,-0.12,0.21,0.23,0.33
8.723,-0.81,0.36,0.29,0.94
8.733,0.28,0.40,-0.70,0.86
8.743,0.24,-0.37,0.75,0.87
8.753,-0.23,-0.37,-0.89,0.99
8.763,0.21,-0.41,0.19,0.50
8.773,0.14,-0.35,0.12,0.40
8.783,-0.11,0.19,-0.49,0.53
8.794,0.54,0.14,0.57,0.80
8.804,0.47,0.65,-1.16,1.41
8.814,0.10,0.13,1.12,1.13
8.824,-0.26,-0.27,-0.67,0.77
8.834,-0.62,-0.37,0.06,0.73
8.844,-0.24,0.59,0.42,0.76
8.854,-0.54,0.33,0.55,0.84
8.864,-0.03,-0.01,-1.35,1.35
8.874,0.27,-0.30,0.49,0.64
8.884,0.38,-0.37,0.18,0.56
8.894,-0.31,-0.20,-0.44,0.58
8.904,0.13,-0.11,0.14,0.23
8.914,-0.05,0.05,-0.04,0.08
8.925,0.74,0.42,-0.75,1.13
8.934,0.49,0.28,0.91,1.07
8.945,-0.06,-0.08,-0.38,0.39
8.955,-0.57,-0.48,0.13,0.76
8.965,-0.01,-0.26,-0.15,0.30
8.975,-1.14,0.54,1.10,1.67
8.985,-0.13,0.83,-1.20,1.46
8.995,0.17,-0.17,0.73,0.77
9.005,0.12,-0.53,-0.51,0.75
9.015,-0.03,-0.22,-0.42,0.48
9.025,0.36,-0.20,0.45,0.61
9.035,0.06,-0.07,-0.43,0.44
9.045,0.10,0.18,0.18,0.28
9.056,0.63,0.01,0.47,0.79
9.066,-0.24,0.64,-1.08,1.27
9.076,0.35,-0.21,0.81,0.91
9.086,-0.43,-0.17,-0.23,0.51
9.096,-0.58,-0.19,0.18,0.63
9.106,-0.12,0.52,-0.01,0.54
9.116,-0.11,0.42,0.14,0.45
9.126,-0.24,-0.14,0.22,0.36
9.136,0.09,-0.50,-0.75,0.90
9.146,0.34,-0.61,0.22,0.73
9.156,0.07,0.19,-0.58,0.61
9.166,-0.13,-0.16,0.77,0.79
9.176,0.36,0.16,-0.94,1.02
9.187,0.34,0.28,0.78,0.90
9.197,0.58,0.29,-0.50,0.82
9.207,-0.74,0.16,0.27,0.80
9.217,-0.02,-0.25,-0.63,0.68
9.227,-0.46,-0.35,0.88,1.05
9.237,-0.59,0.88,-0.46,1.16
9.247,0.14,0.13,0.22,0.29
9.257,-0.06,-0.32,-0.30,0.44
9.267,-0.01,-0.21,0.03,0.21
9.277,0.12,-0.47,0.35,0.60
9.288,-0.02,-0.06,-0.67,0.67
9.298,0.52,0.02,-0.24,0.57
9.308,0.07,0.13,0.98,0.99
9.318,0.46,0.08,-0.35,0.58
9.328,0.04,0.26,-0.69,0.74
9.338,-0.44,0.14,0.90,1.02
9.348,-0.35,-0.14,-0.20,0.43
9.358,-0.20,-0.29,0.47,0.58
9.368,-0.15,0.40,-0.56,0.70
9.378,-0.24,0.41,0.67,0.82
9.388,0.54,-0.11,-1.48,1.58
9.398,-0.53,-0.61,1.24,1.48
9.409,0.04,-0.22,-0.97,1.00
9.418,-0.11,-0.07,0.49,0.51
9.429,0.64,0.07,-0.59,0.87
9.439,0.37,0.09,1.01,1.08
9.449,0.43,0.20,-0.89,1.01
9.459,-0.32,0.31,0.28,0.53
9.469,0.21,-0.24,0.32,0.45
9.479,-0.71,0.02,-0.88,1.13
9.489,-0.18,-0.31,1.22,1.27
9.499,-0.26,0.50,-0.79,0.97
9.509,-0.27,0.26,0.46,0.59
9.519,0.16,0.03,-0.55,0.57
9.529,0.22,-0.53,-0.09,0.58
9.540,-0.04,-0.33,0.33,0.47
9.550,0.15,-0.08,-0.67,0.69
9.560,-0.08,0.10,0.37,0.39
9.570,0.77,0.32,-0.12,0.84
9.580,0.01,0.20,0.06,0.21
9.590,0.19,0.08,-0.81,0.84
9.600,-0.39,-0.14,1.11,1.18
9.610,-0.17,-0.02,-0.90,0.92
9.620,-0.53,-0.05,0.68,0.87
9.630,-0.44,0.39,0.22,0.62
9.640,-0.02,0.19,-1.45,1.47
9.651,-0.02,-0.21,1.34,1.36
9.661,0.61,-0.29,-0.97,1.18
9.671,-0.22,-0.40,-0.05,0.46
9.681,0.06,-0.19,0.12,0.23
9.691,0.18,0.16,-0.18,0.30
9.701,0.31,0.62,-0.39,0.80
9.711,0.40,0.06,0.84,0.93
9.721,-0.00,-0.04,-0.87,0.87
9.731,-0.33,-0.26,0.64,0.76
9.741,-0.17,-0.02,-0.20,0.26
9.751,-0.56,0.20,-0.15,0.61
9.761,-0.14,0.28,0.43,0.54
9.771,-0.20,0.27,-0.07,0.35
9.782,0.13,-0.36,-0.32,0.50
9.792,0.10,-0.13,-0.36,0.40
9.802,0.14,-0.49,0.74,0.90
9.812,-0.00,-0.40,-0.29,0.49
9.822,0.35,0.16,-0.60,0.71
9.832,0.30,0.57,0.44,0.78
9.842,0.18,0.49,0.16,0.55
9.852,0.13,-0.16,-0.66,0.70
9.862,-0.34,-0.28,0.43,0.62
9.872,-0.24,0.02,0.16,0.29
9.882,-0.37,-0.01,0.11,0.39
9.893,-0.54,0.58,-0.06,0.79
9.903,0.40,-0.10,-0.05,0.41
9.913,-0.15,-0.02,-0.70,0.71
9.923,0.27,-0.44,0.94,1.07
9.933,-0.30,-0.21,-0.73,0.81
9.943,0.17,-0.37,0.11,0.42
9.953,0.15,-0.06,0.06,0.17
9.963,0.50,0.53,-0.97,1.21
9.973,0.45,0.56,0.58,0.93
9.983,0.30,-0.09,0.10,0.33
9.993,-0.68,-0.18,-0.39,0.80
10.003,-0.55,-0.35,1.11,1.29
10.014,-0.41,0.31,-0.87,1.01
10.024,-0.30,0.35,1.02,1.12
10.034,0.57,0.10,-0.87,1.04
10.044,-0.49,-0.37,0.45,0.76
10.054,0.28,-0.37,-0.32,0.56
10.064,-0.03,-0.03,-0.08,0.09
10.074,0.22,-0.24,-0.28,0.43
10.084,-0.14,-0.22,0.68,0.73
10.094,0.82,0.46,-1.41,1.69
10.104,0.69,0.17,0.45,0.84
10.114,-0.38,0.42,0.56,0.80
10.124,-0.36,0.08,-0.31,0.48
10.135,-0.55,-0.28,-0.49,0.79
10.144,-0.26,-0.03,0.95,0.99
10.155,-0.27,0.46,-0.17,0.57
10.165,0.18,0.23,-0.32,0.44
10.175,-0.04,-0.38,0.07,0.39
10.185,0.06,-0.47,-0.24,0.53
10.195,0.07,-0.24,-0.29,0.38
10.205,-0.01,-0.25,0.87,0.91
10.215,0.17,-0.04,-1.05,1.06
10.225,0.48,0.30,-0.02,0.57
10.235,0.50,0.38,0.29,0.69
10.245,0.05,0.15,-0.26,0.30
10.256,-0.55,0.37,0.10,0.67
10.266,0.19,-0.27,-0.37,0.50
10.276,-1.17,0.40,0.68,1.41
10.286,0.06,0.16,-0.04,0.17
10.296,0.07,-0.00,-0.22,0.23
10.306,-0.27,-0.37,0.38,0.60
10.316,0.32,-0.47,-0.70,0.90
10.326,-0.27,-0.22,0.59,0.68
10.336,0.13,-0.04,-0.48,0.50
10.346,0.07,-0.08,0.23,0.25
10.356,0.75,0.14,-0.53,0.93
10.366,0.58,0.42,-0.01,0.72
10.377,-0.06,0.29,0.11,0.32
10.386,-0.50,0.15,0.10,0.53
10.397,-0.34,-0.20,-0.04,0.40
10.407,-0.34,-0.26,0.67,0.79
10.417,-0.63,0.47,-0.56,0.96
10.427,0.10,0.05,0.07,0.14
10.437,0.28,-0.33,0.01,0.43
10.447,-0.04,-0.39,0.15,0.42
10.457,0.16,-0.38,-0.65,0.77
10.467,-0.04,-0.15,-0.06,0.17
10.477,0.01,0.01,0.62,0.62
10.487,0.38,0.32,-0.71,0.86
10.498,0.66,0.16,-0.33,0.76
10.508,-0.12,0.29,0.93,0.98
10.518,-0.06,0.23,-1.08,1.11
10.528,-0.62,-0.08,0.88,1.08
10.538,-0.17,-0.14,0.70,0.73
10.548,-1.12,0.29,-1.21,1.67
10.558,0.59,0.04,0.16,0.62
10.568,0.15,-0.02,0.62,0.64
10.578,-0.17,-0.22,-0.94,0.98
10.588,0.44,-0.67,0.68,1.05
10.598,-0.04,-0.26,-0.42,0.50
10.609,0.15,0.02,0.33,0.36
10.619,0.65,0.32,-0.78,1.07
10.628,0.30,0.28,0.44,0.60
10.639,-0.13,0.32,-0.71,0.79
10.649,-0.67,-0.15,0.89,1.12
10.659,-0.06,-0.07,-0.70,0.71
10.669,-0.39,0.14,0.26,0.49
10.679,-0.45,0.39,1.03,1.19
10.689,0.44,0.03,-1.09,1.18
10.699,-0.18,-0.31,0.39,0.53
10.709,0.25,-0.36,-0.21,0.48
10.719,-0.22,-0.32,-0.22,0.45
10.729,0.16,-0.23,-0.27,0.39
10.740,0.17,0.41,-0.05,0.45
10.750,0.81,0.44,0.25,0.95
10.760,0.35,-0.03,-0.24,0.43
10.770,-0.27,-0.03,-0.32,0.42
10.780,-0.11,-0.22,-0.13,0.28
10.790,-0.63,0.11,0.75,0.98
10.800,-0.31,0.40,-0.74,0.90
10.810,-0.60,0.32,1.07,1.27
10.820,0.40,-0.12,-0.96,1.05
10.830,-0.43,-0.17,0.03,0.46
10.840,0.75,-0.49,0.14,0.91
10.851,-0.17,-0.31,-0.37,0.51
10.861,0.09,-0.10,0.06,0.15
10.871,0.39,0.26,0.01,0.47
10.881,0.29,0.42,0.22,0.56
10.891,0.28,0.09,-0.33,0.44
10.901,-0.01,-0.08,0.18,0.20
10.911,-0.50,-0.18,-0.02,0.53
10.921,-0.41,0.07,0.27,0.50
10.931,-0.39,0.51,-0.18,0.67
10.941,-0.27,0.06,0.53,0.60
10.951,0.20,-0.19,-0.46,0.54
10.961,0.19,-0.40,-0.27,0.52
10.971,-0.15,-0.06,-0.05,0.17
10.982,0.26,-0.24,-0.28,0.45
10.992,0.26,-0.25,0.24,0.44
11.002,0.11,0.33,-0.17,0.39
11.012,0.39,0.52,0.13,0.66
11.022,0.13,0.11,-0.07,0.18
11.032,-0.07,-0.21,-0.19,0.29
11.042,-0.39,-0.19,0.16,0.46
11.052,-0.52,0.06,0.55,0.76
11.062,-0.51,0.38,-0.40,0.75
11.072,0.06,0.13,-0.12,0.19
11.082,0.16,-0.17,0.12,0.27
11.093,0.00,-0.24,-0.42,0.48
11.103,0.17,-0.29,0.17,0.37
11.112,-0.05,-0.22,-0.09,0.24
11.123,0.19,-0.21,0.01,0.29
11.133,0.70,0.31,-0.53,0.93
11.143,0.24,0.37,0.62,0.75
11.153,-0.24,0.36,-0.43,0.61
11.163,-0.37,-0.10,0.06,0.39
11.173,-0.24,-0.32,0.11,0.42
11.183,-0.32,-0.10,0.20,0.39
11.193,-0.30,0.53,-0.28,0.67
11.203,0.21,0.12,0.34,0.41
11.214,-0.04,-0.36,-0.29,0.46
11.224,-0.09,-0.32,-0.55,0.64
11.234,0.37,-0.23,0.10,0.45
11.244,-0.19,-0.03,0.03,0.19
11.254,0.27,-0.05,-0.29,0.40
11.264,0.27,0.16,0.63,0.71
11.274,0.41,0.54,-0.92,1.14
11.284,0.07,0.06,0.28,0.30
11.294,-0.61,0.10,-0.15,0.64
11.304,-0.20,-0.24,0.82,0.87
11.314,-0.64,0.38,-0.52,0.91
11.324,-0.13,0.28,0.46,0.55
11.334,0.15,-0.01,-0.64,0.66
11.345,0.11,-0.50,-0.09,0.52
11.355,0.06,-0.18,-0.14,0.24
11.365,0.25,-0.29,0.35,0.52
11.375,-0.30,0.31,-0.51,0.66
11.385,0.57,0.02,0.41,0.70
11.395,0.36,0.30,-0.29,0.56
11.405,0.05,-0.06,0.25,0.26
11.415,-0.03,0.02,-0.27,0.27
11.425,-0.40,-0.15,-0.09,0.44
11.435,-0.26,-0.13,0.71,0.77
11.445,-0.38,0.31,-0.31,0.59
11.456,-0.22,0.40,0.02,0.46
11.466,0.14,0.14,-0.14,0.24
11.476,0.32,-0.43,-0.04,0.54
11.486,-0.11,-0.43,-0.17,0.47
11.496,-0.02,-0.17,-0.17,0.24
11.506,0.11,-0.04,0.11,0.16
11.516,0.39,0.20,0.12,0.46
11.526,0.25,0.41,-0.42,0.63
11.536,0.17,-0.01,0.02,0.17
11.546,0.13,-0.23,0.12,0.29
11.556,-0.45,0.04,-0.20,0.49
11.566,-0.14,-0.19,0.78,0.81
11.576,-0.66,0.42,-0.59,0.99
11.587,-0.36,0.38,-0.10,0.53
11.597,0.33,-0.08,0.25,0.42
11.607,0.01,-0.28,-0.34,0.44
11.617,0.15,-0.44,-0.04,0.47
11.627,0.11,-0.31,-0.30,0.44
11.637,0.07,0.15,-0.17,0.24
11.647,0.38,0.55,0.30,0.73
11.657,0.38,0.14,0.13,0.42
11.667,-0.07,0.05,-0.54,0.55
11.677,-0.08,-0.09,0.08,0.14
11.688,-0.13,-0.12,0.20,0.27
11.698,-0.18,-0.08,-0.08,0.21
11.708,-0.70,0.40,0.10,0.82
11.718,-0.03,0.12,0.12,0.17
11.728,-0.16,0.02,-0.44,0.47
11.738,0.25,-0.23,-0.00,0.34
11.748,0.31,-0.48,-0.18,0.60
11.758,0.16,-0.18,-0.50,0.56
11.768,-0.10,0.13,0.58,0.60
11.778,0.22,0.37,-0.23,0.49
11.788,0.30,0.28,-0.16,0.44
11.798,0.24,0.08,-0.17,0.30
11.809,-0.17,-0.15,0.19,0.30
11.819,-0.02,-0.17,-0.48,0.51
11.829,-0.59,0.00,0.83,1.02
11.839,-0.52,0.17,-0.04,0.54
11.849,-0.19,0.40,-0.56,0.71
11.859,0.41,0.00,0.49,0.64
11.869,-0.15,-0.12,-0.39,0.43
11.879,0.04,-0.50,-0.51,0.71
11.889,0.10,-0.29,0.41,0.51
11.899,0.42,0.08,-0.55,0.70
11.909,0.12,0.25,0.50,0.57
11.919,0.27,0.38,-0.10,0.47
11.929,0.15,0.11,-0.32,0.37
11.940,-0.20,-0.17,0.01,0.26
11.950,-0.04,-0.31,0.21,0.37
11.960,-0.60,0.06,0.23,0.65
11.970,-0.33,0.43,-0.18,0.57
11.980,-0.18,0.33,-0.02,0.38
11.990,0.03,-0.02,-0.03,0.05
12.000,0.08,-0.23,-0.38,0.45
12.010,0.18,-0.52,-0.01,0.55
12.020,0.05,-0.40,-0.12,0.42
12.030,-0.05,0.08,0.04,0.10
12.040,0.48,0.30,0.07,0.57
12.050,0.38,0.41,-0.16,0.58
12.060,0.32,0.21,-0.04,0.38
12.071,-0.28,-0.10,-0.10,0.31
12.081,-0.12,-0.52,-0.02,0.53
12.091,-0.67,-0.01,0.24,0.71
12.101,-0.35,0.75,0.11,0.84
12.111,-0.11,0.48,0.07,0.50
12.121,-0.15,-0.40,-0.36,0.56
12.131,0.28,-0.36,-0.36,0.58
12.141,0.14,-0.34,0.49,0.61
12.151,0.19,-0.34,-0.74,0.84
12.162,-0.07,0.01,0.24,0.25
12.171,0.35,0.17,0.38,0.54
12.182,0.22,0.43,-0.77,0.91
12.192,0.27,0.29,0.59,0.71
12.202,0.01,-0.18,-0.61,0.63
12.212,-0.23,-0.49,0.10,0.54
12.222,-0.38,-0.00,0.52,0.64
12.232,-0.55,0.69,-0.40,0.97
12.242,-0.33,0.45,0.43,0.71
12.252,0.07,0.06,-0.55,0.56
12.262,0.20,-0.67,-0.03,0.70
12.272,-0.04,-0.48,0.02,0.48
12.282,0.18,-0.20,-0.37,0.45
12.293,0.15,-0.15,0.10,0.23
12.303,0.29,0.29,-0.11,0.43
12.312,0.38,0.34,0.30,0.59
12.323,0.09,0.15,-0.14,0.22
12.333,-0.11,0.21,-0.60,0.64
12.343,0.12,-0.45,0.44,0.64
12.353,-0.70,-0.09,0.15,0.72
12.363,-0.41,0.53,-0.32,0.74
12.373,-0.23,0.46,0.63,0.81
12.383,-0.01,-0.06,-0.46,0.46
12.393,0.43,-0.46,-0.17,0.65
12.403,-0.06,-0.47,0.19,0.51
12.414,-0.02,-0.16,-0.70,0.72
12.424,0.20,0.06,0.64,0.68
12.434,0.57,-0.03,-0.19,0.60
12.444,0.03,0.24,-0.07,0.25
12.454,0.45,0.02,0.05,0.46
12.464,-0.26,0.29,-0.38,0.54
12.474,0.10,-0.26,0.38,0.48
12.484,-0.76,-0.23,-0.12,0.81
12.494,-0.43,0.56,-0.08,0.71
12.504,-0.22,0.60,0.52,0.82
12.514,-0.17,0.15,-1.06,1.08
12.524,0.91,-0.70,0.67,1.33
12.535,-0.38,-0.67,0.34,0.84
12.545,-0.24,-0.12,-1.35,1.38
12.555,0.38,-0.12,1.11,1.18
12.565,0.32,0.24,-0.70,0.81
12.575,0.37,0.18,0.19,0.45
12.585,0.61,0.02,0.03,0.61
12.595,-0.49,0.20,-0.26,0.59
12.605,-0.17,-0.27,0.11,0.34
12.615,-0.30,-0.06,0.09,0.32
12.625,-0.59,0.44,0.27,0.79
12.635,-0.43,0.41,-0.26,0.65
12.646,0.16,0.18,-0.39,0.47
12.656,-0.08,-0.50,0.77,0.92
12.666,0.46,-0.54,-1.33,1.50
12.676,-0.16,-0.33,0.89,0.96
12.686,0.75,0.02,-0.77,1.08
12.696,-0.12,0.24,0.72,0.77
12.706,0.55,0.31,-0.68,0.93
12.716,0.05,-0.04,0.46,0.46
12.726,-0.21,-0.14,-0.64,0.69
12.736,-0.13,-0.15,0.01,0.20
12.746,-0.59,0.08,0.98,1.15
12.757,-0.54,0.58,-0.92,1.22
12.766,-0.20,0.31,-0.15,0.40
12.777,0.28,-0.04,0.54,0.61
12.787,0.07,-0.34,-0.83,0.90
12.797,0.36,-0.59,0.06,0.69
12.807,-0.47,-0.12,0.59,0.76
12.817,0.55,0.10,-0.89,1.05
12.827,0.29,0.31,0.84,0.94
12.837,0.65,0.00,-0.80,1.03
12.847,0.03,-0.16,-0.28,0.32
12.857,-0.43,-0.10,0.62,0.76
12.867,-0.31,0.02,-0.63,0.70
12.877,-0.73,0.35,0.79,1.13
12.887,-0.01,0.57,-0.16,0.60
12.898,-0.27,0.06,-0.07,0.29
12.908,0.26,-0.20,-0.35,0.48
12.918,0.01,-0.21,0.20,0.29
12.928,-0.08,-0.45,-0.36,0.58
12.938,0.16,-0.20,0.02,0.26
12.948,0.55,0.06,0.20,0.59
12.958,0.17,0.23,-0.11,0.31
12.968,0.28,0.06,-0.15,0.33
12.978,0.34,-0.01,-0.24,0.42
12.988,-0.36,-0.27,0.54,0.71
12.998,-0.39,0.05,-0.60,0.72
13.009,-0.66,0.60,0.77,1.18
13.019,-0.21,0.43,-0.46,0.66
13.029,-0.09,0.08,-0.26,0.28
13.039,0.19,-0.37,0.43,0.60
13.049,-0.07,-0.40,-0.79,0.89
13.059,0.14,-0.33,0.24,0.43
13.069,0.39,-0.16,-0.30,0.52
13.079,0.02,0.18,0.40,0.44
13.089,0.62,0.27,-0.27,0.73
13.099,0.23,0.15,-0.08,0.28
13.109,0.12,-0.14,0.19,0.26
13.120,-0.44,-0.25,-0.31,0.59
13.129,-0.80,-0.04,0.45,0.92
13.140,-0.28,0.65,0.34,0.79
13.150,-0.16,0.47,-0.61,0.78
13.160,0.04,-0.14,-0.10,0.18
13.170,0.06,-0.22,-0.04,0.23
13.180,-0.04,-0.51,0.09,0.52
13.190,0.28,-0.23,-0.55,0.66
13.200,0.27,-0.28,0.35,0.52
13.210,0.28,0.17,-0.09,0.34
13.220,0.30,0.41,-0.25,0.57
13.230,0.27,0.19,0.30,0.45
13.241,-0.05,-0.15,-0.54,0.56
13.250,-0.43,-0.21,0.18,0.51
13.261,-0.52,0.08,0.81,0.96
13.271,-0.46,0.58,-0.63,0.97
13.281,-0.17,0.29,0.09,0.35
13.291,0.09,-0.26,-0.00,0.28
13.301,0.25,-0.49,-0.65,0.85
13.311,-0.09,-0.31,0.39,0.50
13.322,0.13,0.10,-0.39,0.43
13.331,0.11,-0.19,0.20,0.30
13.341,0.33,0.14,0.33,0.48
13.351,0.55,0.03,-0.42,0.70
13.362,0.54,0.12,-0.20,0.59
13.371,-0.86,0.00,0.26,0.90
13.382,-0.06,-0.21,-0.27,0.35
13.392,-0.84,0.32,0.89,1.26
13.402,0.11,0.62,-0.99,1.17
13.412,-0.39,0.08,0.60,0.72
13.422,0.34,-0.21,-0.84,0.93
13.432,-0.18,-0.55,0.63,0.86
13.442,0.44,-0.23,-0.82,0.96
13.452,-0.46,-0.28,0.50,0.74
13.462,0.64,0.16,-0.85,1.08
13.472,0.47,0.29,0.92,1.07
13.483,0.29,0.20,-0.62,0.71
13.493,0.01,0.14,-0.30,0.33
13.503,-0.25,-0.03,0.44,0.51
13.513,-0.34,-0.37,-0.11,0.51
13.523,-0.59,0.17,0.32,0.69
13.533,-0.09,0.60,-0.09,0.61
13.543,-0.42,0.25,-0.14,0.51
13.553,0.26,-0.17,-0.24,0.39
13.563,0.34,-0.72,-0.08,0.80
13.573,0.05,-0.45,0.22,0.50
13.583,-0.21,-0.08,-0.26,0.34
13.593,0.22,0.46,-0.13,0.52
13.603,0.56,0.27,0.39,0.73
13.614,0.21,0.29,-0.55,0.65
13.624,0.19,-0.04,0.06,0.20
13.634,-0.02,-0.26,0.32,0.41
13.644,-0.56,-0.33,0.03,0.65
13.654,-0.80,0.19,0.22,0.85
13.664,-0.20,0.55,0.05,0.59
13.674,0.19,0.36,-1.03,1.11
13.684,0.06,-0.21,1.63,1.65
13.694,-0.07,-0.55,-1.20,1.32
13.704,0.08,-0.63,-0.29,0.70
13.714,0.54,-0.02,0.20,0.58
13.725,0.11,0.54,-0.10,0.56
13.735,0.39,0.26,-0.07,0.47
13.745,0.03,0.23,-0.14,0.27
13.755,0.09,-0.04,-0.09,0.13
13.765,-0.25,0.04,-0.16,0.30
13.775,-0.20,-0.37,0.77,0.87
13.785,-0.65,0.11,-0.69,0.95
13.795,-0.41,0.34,0.24,0.58
13.805,0.39,0.33,0.37,0.63
13.815,-0.06,-0.30,-0.97,1.02
13.825,0.34,-0.56,0.21,0.69
13.835,-0.00,-0.26,0.50,0.57
13.845,0.07,-0.08,-0.85,0.86
13.856,-0.02,0.31,0.44,0.54
13.866,0.44,0.46,-0.19,0.66
13.876,0.23,0.06,-0.24,0.34
13.886,0.08,-0.02,-0.19,0.21
13.896,-0.19,-0.35,0.15,0.43
13.906,-0.33,-0.08,-0.06,0.34
13.916,-0.70,0.45,0.36,0.91
13.926,-0.16,0.41,-0.12,0.46
13.936,0.03,0.03,-0.39,0.39
13.946,0.09,-0.33,0.01,0.34
13.956,0.02,-0.13,-0.18,0.22
13.967,0.37,-0.50,0.16,0.64
13.977,0.08,-0.29,-0.29,0.42
13.987,0.16,0.35,0.06,0.39
13.997,0.32,0.51,0.16,0.62
14.007,0.22,0.31,-0.26,0.47
14.017,0.01,-0.12,-0.27,0.30
14.027,-0.26,-0.50,0.29,0.63
14.037,-0.47,0.16,-0.18,0.53
14.047,-0.48,0.39,0.50,0.80
14.057,0.02,0.21,-0.39,0.45
14.067,-0.02,-0.13,-0.04,0.14
14.078,0.03,-0.19,-0.08,0.21
14.088,0.20,-0.29,-0.43,0.56
14.098,-0.17,-0.30,0.54,0.64
14.108,0.28,0.02,-0.93,0.97
14.118,0.25,0.18,0.39,0.50
14.128,0.40,0.41,0.30,0.64
14.138,-0.02,0.37,-0.45,0.58
14.148,0.15,-0.33,-0.12,0.38
14.158,-0.04,-0.21,0.07,0.22
14.168,-0.67,-0.28,0.68,0.99
14.178,-0.24,0.56,-0.82,1.02
14.188,-0.45,0.35,0.74,0.93
14.198,0.15,-0.03,-0.32,0.35
14.209,0.19,-0.42,-0.59,0.75
14.219,0.17,-0.46,0.35,0.60
14.229,-0.12,-0.02,-0.38,0.40
14.239,0.20,-0.16,0.06,0.27
14.249,0.21,0.07,-0.06,0.23
14.259,0.50,0.33,-0.12,0.61
14.269,0.12,0.46,-0.09,0.49
14.279,-0.26,0.16,0.22,0.38
14.289,-0.14,-0.44,-0.33,0.57
14.299,-0.37,-0.38,0.37,0.65
14.309,-0.18,0.58,0.26,0.66
14.319,-0.21,0.59,-0.10,0.64
14.330,-0.13,-0.10,-0.38,0.41
14.340,0.06,-0.28,-0.07,0.29
14.350,0.19,-0.60,0.05,0.64
14.360,-0.13,-0.29,-0.35,0.48
14.370,0.02,0.00,-0.27,0.27
14.380,0.54,0.05,0.49,0.73
14.390,0.16,0.15,-0.04,0.22
14.400,0.20,0.27,-0.48,0.58
14.410,0.03,0.35,0.07,0.35
14.420,-0.12,-0.24,0.13,0.30
14.430,-0.35,-0.27,0.15,0.47
14.440,-0.50,0.34,-0.09,0.61
14.451,-0.18,0.34,0.35,0.52
14.461,-0.16,0.32,-0.59,0.69
14.471,0.28,-0.61,0.12,0.68
14.481,-0.09,-0.58,-0.06,0.59
14.491,0.33,-0.15,-0.41,0.55
14.501,-0.04,-0.04,0.26,0.27
14.511,0.46,0.02,-0.46,0.65
14.521,-0.04,0.26,0.55,0.61
14.531,0.65,0.14,-0.64,0.92
14.541,-0.24,0.35,0.15,0.45
14.551,-0.14,-0.17,0.06,0.23
14.561,-0.23,-0.27,-0.01,0.35
14.572,-0.87,0.30,0.41,1.01
14.582,0.05,0.52,-0.41,0.66
14.592,0.01,0.22,0.18,0.29
14.602,0.20,-0.73,-0.25,0.80
14.612,0.05,-0.60,-0.54,0.81
14.622,0.12,-0.29,0.49,0.58
14.632,-0.03,0.05,-0.42,0.42
14.642,0.20,0.22,-0.12,0.32
14.652,0.47,0.20,0.24,0.56
14.662,0.28,0.22,-0.18,0.40
14.672,0.10,0.08,-0.27,0.30
14.683,-0.30,-0.15,0.18,0.38
14.693,-0.60,-0.10,0.18,0.64
14.703,-0.52,0.40,0.00,0.65
14.713,-0.05,0.52,-0.16,0.54
14.723,-0.02,0.01,-0.10,0.10
14.733,0.12,-0.42,-0.35,0.56
14.743,0.10,-0.63,0.25,0.68
14.753,0.16,-0.36,-0.46,0.61
14.763,0.12,0.06,-0.13,0.19
14.773,0.36,0.42,0.35,0.66
14.783,0.30,0.26,-0.45,0.60
14.793,0.20,-0.06,0.10,0.23
14.803,-0.04,-0.05,-0.29,0.30
14.814,-0.27,-0.23,0.34,0.49
14.824,-0.43,0.17,0.03,0.47
14.834,-0.58,0.39,0.21,0.73
14.844,-0.15,0.47,-0.69,0.85
14.854,-0.03,-0.21,0.27,0.34
14.864,0.26,-0.32,-0.25,0.48
14.874,0.02,-0.56,0.04,0.57
14.884,0.07,-0.32,-0.37,0.49
14.894,0.34,0.03,0.38,0.51
14.904,0.28,0.48,-0.06,0.56
14.914,0.20,0.27,-0.21,0.40
14.925,0.30,-0.06,-0.28,0.42
14.935,0.15,-0.33,0.22,0.43
14.945,-0.62,-0.11,-0.00,0.63
14.955,-0.66,0.38,0.22,0.80
14.965,-0.11,0.48,-0.16,0.51
14.975,-0.40,0.23,-0.22,0.51
14.985,0.52,-0.10,0.08,0.54
14.995,-0.21,-0.40,-0.03,0.45
15.005,0.21,-0.42,-0.81,0.94
15.015,0.01,-0.34,0.72,0.80
15.025,0.36,0.02,-0.75,0.83
15.035,0.40,0.26,0.28,0.55
15.046,0.34,0.35,0.09,0.50
15.056,0.07,0.12,-0.66,0.68
15.066,-0.28,-0.44,0.43,0.68
15.076,-0.16,0.06,0.03,0.17
15.086,-1.03,0.66,0.57,1.35
15.096,-0.39,0.37,-0.56,0.77
15.106,0.43,-0.06,0.21,0.48
15.116,0.15,-0.62,0.13,0.65
15.126,0.05,-0.38,-1.51,1.56
15.136,0.06,-0.03,1.38,1.38
15.146,0.01,0.09,-0.69,0.70
15.156,-0.08,0.03,0.12,0.15
15.167,0.60,0.10,0.18,0.64
15.177,0.44,0.21,-0.27,0.56
15.187,0.17,-0.08,0.09,0.20
15.197,-0.04,-0.31,-0.39,0.50
15.207,-0.81,-0.11,0.58,1.00
15.217,-0.68,0.76,0.23,1.04
15.227,0.10,0.46,-0.64,0.79
15.237,-0.31,-0.15,0.19,0.39
15.247,0.46,-0.15,-0.42,0.64
15.257,-0.18,-0.61,0.33,0.72
15.267,0.15,-0.40,-0.48,0.64
15.278,0.29,-0.35,0.24,0.52
15.287,0.14,0.42,-0.42,0.61
15.297,0.68,0.14,0.44,0.82
15.308,0.04,0.50,-0.22,0.55
15.318,0.10,-0.11,-0.22,0.27
15.328,-0.51,-0.25,0.21,0.60
15.338,-0.17,-0.06,0.12,0.22
15.348,-0.74,0.67,0.12,1.00
15.358,-0.07,0.59,-0.18,0.62
15.368,-0.09,-0.04,0.12,0.15
15.378,0.08,-0.54,-0.36,0.65
15.388,0.22,-0.32,-0.34,0.51
15.399,0.07,-0.42,0.64,0.77
15.408,-0.21,-0.19,-0.73,0.78
15.419,0.67,0.28,-0.18,0.74
15.429,0.51,0.11,1.00,1.13
15.439,0.26,0.31,-0.94,1.02
15.449,-0.18,-0.05,-0.08,0.20
15.459,-0.31,-0.30,0.35,0.55
15.469,-0.45,0.14,-0.15,0.50
15.479,-0.54,0.59,0.20,0.83
15.489,-0.14,0.53,-0.03,0.55
15.499,-0.01,-0.12,-0.36,0.38
15.509,-0.01,-0.57,-0.15,0.59
15.519,0.27,-0.62,0.10,0.69
15.530,0.16,-0.01,-0.11,0.19
15.540,-0.15,-0.09,0.13,0.22
15.550,0.60,0.12,-0.29,0.68
15.560,0.63,0.07,0.30,0.70
15.570,0.07,0.29,-0.33,0.45
15.580,-0.31,0.21,-0.11,0.39
15.590,-0.26,-0.26,0.07,0.38
15.600,-0.47,0.02,0.29,0.55
15.610,-0.53,0.41,-0.26,0.72
15.620,-0.05,0.50,0.09,0.51
15.631,-0.10,-0.02,-0.01,0.10
15.641,0.34,-0.42,-0.79,0.95
15.651,0.11,-0.65,0.64,0.91
15.661,-0.15,-0.22,-0.51,0.58
15.671,0.13,0.26,0.11,0.31
15.681,0.78,-0.10,0.33,0.85
15.691,0.47,0.08,-0.40,0.62
15.701,-0.13,0.31,-0.02,0.34
15.711,-0.09,-0.01,-0.13,0.16
15.721,-0.22,-0.23,-0.13,0.34
15.731,-0.75,0.02,0.55,0.93
15.741,-0.29,0.49,-0.37,0.68
15.751,-0.09,0.36,0.11,0.39
15.761,-0.03,0.22,-0.29,0.36
15.772,0.03,-0.64,0.01,0.65
15.782,0.20,-0.57,-0.39,0.72
15.792,0.24,-0.31,0.12,0.41
15.802,0.29,0.16,0.09,0.34
15.812,0.20,0.33,0.17,0.43
15.822,0.56,-0.05,-0.26,0.62
15.832,0.07,0.18,-0.65,0.68
15.842,-0.39,-0.03,0.55,0.68
15.852,-0.02,-0.00,-0.44,0.44
15.862,-0.71,-0.11,0.64,0.96
15.873,-0.38,0.35,-0.28,0.59
15.883,-0.05,0.48,-0.24,0.54
15.893,0.03,-0.02,0.47,0.47
15.903,0.11,-0.38,-0.83,0.92
15.913,-0.00,-0.52,0.29,0.60
15.923,0.15,-0.13,-0.18,0.27
15.933,0.34,0.06,0.02,0.35
15.943,0.36,0.30,0.19,0.51
15.953,0.31,0.02,-0.37,0.48
15.963,0.21,0.04,-0.14,0.25
15.973,-0.33,-0.11,0.13,0.37
15.983,-0.16,-0.08,-0.25,0.31
15.994,-0.54,0.10,0.56,0.78
16.003,-0.47,0.42,-0.21,0.66
16.014,-0.18,0.40,-0.18,0.47
16.024,0.16,-0.04,0.19,0.25
16.034,-0.04,-0.26,-0.32,0.41
16.044,0.18,-0.58,-0.26,0.65
16.054,0.11,-0.28,0.29,0.42
16.064,0.22,0.11,-0.15,0.29
16.074,0.64,0.35,-0.26,0.77
16.084,0.36,0.15,0.45,0.59
16.094,-0.06,-0.09,-0.63,0.64
16.104,-0.12,-0.25,0.07,0.29
16.114,-0.28,-0.10,-0.10,0.31
16.125,-0.52,0.32,0.49,0.78
16.135,-0.38,0.49,0.09,0.63
16.145,-0.16,0.31,-0.61,0.70
16.155,0.32,-0.09,-0.32,0.46
16.165,0.34,0.40,-1.83,1.91
16.175,0.01,-0.95,4.48,4.58
16.185,-2.54,0.84,-2.40,3.59
16.195,1.41,-0.80,-0.70,1.76
16.205,0.14,-0.01,2.31,2.31
16.215,1.08,0.49,-2.50,2.77
16.226,1.25,-0.37,-0.50,1.39
16.235,-0.25,-0.16,1.40,1.43
16.246,-0.86,-0.36,1.04,1.40
16.256,-2.24,0.99,0.79,2.57
16.266,0.83,-0.04,-1.29,1.54
16.276,-0.52,0.38,1.64,1.76
16.286,1.05,-0.05,-1.53,1.86
16.296,0.16,-0.77,-0.19,0.81
16.306,0.50,-0.95,-0.12,1.08
16.316,0.28,-0.40,-0.50,0.70
16.326,0.17,0.20,0.15,0.30
16.336,0.29,0.64,-0.30,0.76
16.346,0.06,0.02,0.66,0.67
16.356,0.30,-0.29,-1.05,1.12
16.367,-0.40,-0.38,0.44,0.71
16.377,-0.32,-0.03,0.07,0.33
16.387,-0.52,0.55,-0.06,0.76
16.397,-0.27,0.72,0.20,0.80
16.407,-0.33,0.65,-0.37,0.82
16.417,-0.03,-0.36,0.16,0.39
16.427,0.34,-0.67,-0.53,0.92
16.437,-0.15,-0.39,0.02,0.41
16.447,0.12,-0.12,0.21,0.28
16.457,0.25,-0.05,-0.52,0.58
16.467,0.45,0.05,0.53,0.70
16.478,0.57,0.11,-0.24,0.63
16.488,0.06,0.23,-0.42,0.48
16.498,-0.09,-0.16,0.10,0.21
16.508,-0.29,-0.11,0.03,0.32
16.518,-0.74,0.17,0.31,0.82
16.528,-0.34,0.52,-0.14,0.64
16.538,-0.15,0.51,-0.06,0.54
16.548,0.09,-0.09,0.01,0.13
16.558,-0.02,-0.81,-0.34,0.88
16.568,0.15,-0.39,-0.21,0.47
16.578,0.04,-0.02,0.45,0.45
16.589,-0.02,0.37,-0.56,0.67
16.598,0.48,-0.09,0.27,0.55
16.609,1.07,-0.24,-0.16,1.11
16.619,0.12,0.05,0.10,0.17
16.629,-0.39,0.21,-0.62,0.77
16.639,-0.32,-0.36,0.70,0.85
16.649,-0.67,0.28,0.02,0.73
16.659,-0.55,0.58,-0.37,0.88
16.669,-0.08,0.30,0.32,0.45
16.679,0.73,-0.09,-0.49,0.88
16.689,-0.39,-0.68,0.12,0.79
16.699,-0.13,-0.35,-0.77,0.86
16.709,0.31,0.04,0.56,0.64
16.719,0.05,0.12,0.10,0.16
16.730,0.52,-0.08,-1.03,1.16
16.740,0.59,-0.06,0.86,1.04
16.750,0.25,0.23,-0.21,0.40
16.760,-0.40,-0.03,-0.29,0.50
16.770,-0.32,-0.28,0.42,0.60
16.780,-0.51,0.25,0.47,0.74
16.790,-0.62,0.57,-1.02,1.32
16.800,-0.10,0.15,0.45,0.48
16.810,0.55,0.06,-0.28,0.62
16.820,-0.07,-0.45,-0.22,0.51
16.830,0.19,-0.33,-0.63,0.73
16.840,-0.22,-0.01,1.08,1.10
16.851,0.89,0.30,-1.15,1.49
16.861,0.39,-0.15,1.37,1.43
16.871,0.28,0.00,-1.19,1.22
16.881,-0.19,-0.20,-0.03,0.28
16.891,-0.06,-0.20,0.61,0.65
16.901,-0.70,0.19,-0.43,0.84
16.911,-0.44,0.25,0.25,0.56
16.921,-0.10,0.42,0.05,0.44
16.931,-0.18,0.26,-0.46,0.56
16.941,0.04,-0.24,0.12,0.28
16.951,0.05,-0.34,-0.39,0.52
16.961,0.19,-0.41,-0.11,0.46
16.972,0.04,-0.16,0.17,0.24
16.982,0.36,0.11,-0.32,0.50
16.992,0.42,0.18,0.25,0.52
17.002,0.46,0.00,-0.21,0.50
17.012,-0.34,-0.02,0.03,0.34
17.022,0.07,-0.06,-0.29,0.30
17.032,-0.57,0.08,0.78,0.97
17.042,-0.37,0.61,-0.51,0.87
17.052,-0.36,0.26,0.34,0.56
17.062,0.28,0.08,-1.11,1.15
17.072,-0.24,-0.47,0.97,1.10
17.083,0.26,-0.25,-0.46,0.58
17.093,0.19,-0.49,-0.55,0.76
17.103,0.30,-0.15,0.32,0.46
17.113,0.32,0.50,-0.17,0.62
17.123,0.44,0.10,0.28,0.53
17.133,0.13,0.08,-0.40,0.43
17.143,-0.04,-0.32,-0.09,0.33
17.153,-0.27,-0.20,0.05,0.34
17.164,-0.53,0.38,0.39,0.76
17.174,-0.57,0.66,-0.13,0.88
17.183,-0.06,0.20,-0.19,0.28
17.194,0.16,-0.40,-0.11,0.45
17.204,0.11,-0.33,-0.17,0.39
17.214,0.12,-0.21,-0.10,0.27
17.224,0.08,-0.39,-0.05,0.41
17.234,0.25,-0.06,-0.22,0.33
17.244,0.32,0.33,0.37,0.59
17.254,0.33,0.43,-0.34,0.65
17.264,0.18,-0.11,-0.08,0.23
17.274,0.15,-0.32,-0.13,0.38
17.284,-0.57,-0.20,0.31,0.68
17.294,-0.68,0.45,0.19,0.83
17.304,-0.29,0.64,-0.46,0.84
17.315,-0.08,0.04,0.17,0.19
17.325,0.05,-0.29,-0.33,0.44
17.335,0.34,-0.40,-0.05,0.53
17.345,-0.04,-0.22,-0.07,0.23
17.355,0.13,-0.31,-0.35,0.49
17.365,0.37,-0.00,0.22,0.43
17.375,0.50,0.35,-0.09,0.62
17.385,0.04,0.56,-0.04,0.57
17.395,-0.12,0.06,-0.19,0.23
17.405,0.11,-0.60,-0.16,0.63
17.415,-0.63,-0.23,0.37,0.77
17.425,-0.34,0.51,0.08,0.62
17.435,-0.37,0.57,-0.32,0.75
17.446,0.08,-0.02,0.11,0.14
17.456,0.27,-0.46,-0.36,0.64
17.466,-0.07,-0.53,-0.23,0.58
17.476,0.01,-0.13,0.00,0.13
17.486,0.09,0.07,-0.13,0.18
17.496,0.29,0.15,0.11,0.35
17.506,0.63,0.16,-0.13,0.67
17.516,0.19,0.29,-0.11,0.36
17.526,-0.00,0.22,0.05,0.22
17.536,-0.36,-0.44,0.04,0.57
17.546,-0.51,-0.14,-0.03,0.53
17.557,-0.42,0.40,0.24,0.63
17.566,-0.16,0.51,-0.30,0.61
17.577,0.09,0.06,-0.03,0.11
17.587,0.10,-0.41,-0.25,0.50
17.597,0.01,-0.66,-0.12,0.67
17.607,0.12,-0.33,-0.10,0.37
17.617,0.21,0.26,-0.16,0.36
17.627,0.51,0.22,0.38,0.68
17.637,0.08,0.13,-0.06,0.16
17.647,0.30,0.16,-0.25,0.42
17.657,-0.25,0.24,0.20,0.40
17.667,-0.03,-0.20,-0.16,0.26
17.678,-0.52,-0.29,0.41,0.72
17.688,-0.37,0.30,-0.10,0.48
17.698,-0.23,0.44,-0.25,0.55
17.708,0.38,0.04,-0.06,0.39
17.718,-0.13,-0.50,0.28,0.59
17.728,0.24,-0.57,-0.81,1.02
17.738,-0.02,-0.33,0.42,0.54
17.748,0.12,0.20,-0.50,0.55
17.758,0.23,0.34,0.27,0.49
17.768,0.63,0.14,0.10,0.65
17.778,0.07,0.07,-0.25,0.26
17.788,-0.16,0.20,-0.29,0.38
17.799,-0.09,-0.16,0.44,0.48
17.809,-0.54,-0.23,0.15,0.60
17.819,-0.57,0.36,-0.56,0.88
17.829,0.17,0.28,0.59,0.68
17.839,0.02,0.11,-0.38,0.40
17.849,0.04,-0.64,-0.43,0.77
17.859,0.17,-0.43,0.06,0.47
17.869,0.10,-0.08,-0.00,0.13
17.879,0.27,0.12,-0.24,0.38
17.889,0.15,0.31,0.21,0.41
17.899,0.56,0.20,-0.27,0.65
17.909,-0.17,0.12,-0.05,0.21
17.920,-0.19,0.04,-0.19,0.27
17.930,-0.29,-0.05,0.11,0.32
17.940,-0.24,-0.18,0.38,0.48
17.950,-0.37,0.24,-0.23,0.50
17.960,0.10,0.20,-0.12,0.25
17.970,-0.10,-0.02,0.02,0.11
17.980,0.06,-0.18,-0.42,0.46
17.990,0.27,-0.56,0.16,0.64
18.000,-0.13,-0.29,-0.28,0.43
18.010,0.22,0.24,-0.21,0.38
18.020,0.51,0.38,0.51,0.82
18.031,0.08,0.42,-0.66,0.79
18.040,0.29,-0.02,0.18,0.35
18.051,-0.22,-0.13,0.09,0.27
18.061,-0.42,-0.27,-0.30,0.58
18.071,-0.20,0.14,0.25,0.36
18.081,-0.41,0.40,0.36,0.68
18.091,0.02,0.28,-0.56,0.63
18.101,0.10,-0.38,0.32,0.51
18.111,-0.26,-0.17,-0.62,0.70
18.121,0.58,-0.49,-0.02,0.76
18.131,-0.01,-0.18,-0.07,0.19
18.141,0.20,0.01,-0.08,0.21
18.151,0.41,0.43,0.02,0.59
18.162,0.09,0.34,0.07,0.36
18.172,0.11,0.05,-0.56,0.58
18.182,-0.25,-0.23,0.45,0.56
18.192,-0.46,-0.13,-0.20,0.52
18.202,-0.11,0.24,0.10,0.28
18.212,-0.28,0.39,0.30,0.57
18.222,0.02,0.08,-0.46,0.47
18.232,-0.04,-0.24,-0.07,0.25
18.242,0.08,-0.38,-0.17,0.42
18.252,0.01,-0.10,-0.37,0.38
18.262,0.07,-0.30,0.25,0.40
18.273,0.30,-0.05,-0.35,0.47
18.282,0.36,0.25,0.34,0.56
18.293,0.34,0.51,-0.53,0.81
18.303,-0.01,0.11,0.22,0.25
18.313,-0.25,-0.14,-0.06,0.29
18.323,-0.16,-0.35,0.08,0.40
18.333,-0.51,0.26,0.05,0.57
18.343,-0.28,0.52,0.21,0.62
18.353,-0.09,0.17,-0.01,0.19
18.363,0.14,-0.35,-0.45,0.59
18.373,-0.09,-0.31,0.03,0.32
18.383,0.21,-0.22,-0.22,0.37
18.393,0.09,-0.33,-0.22,0.40
18.404,0.22,-0.09,0.00,0.24
18.414,0.39,0.28,0.03,0.48
18.424,0.41,0.19,-0.11,0.46
18.434,-0.22,0.56,-0.43,0.74
18.444,-0.05,-0.14,0.47,0.50
18.454,-0.28,-0.31,-0.56,0.70
18.464,-0.35,0.02,0.70,0.79
18.474,-0.39,0.66,-0.36,0.85
18.484,-0.06,0.19,-0.23,0.30
18.494,0.04,-0.23,0.14,0.27
18.504,0.08,-0.39,-0.47,0.61
18.515,0.18,-0.36,0.00,0.40
18.525,-0.10,-0.18,0.12,0.24
18.535,0.21,-0.05,-0.46,0.51
18.545,0.36,0.13,0.72,0.81
18.555,0.27,0.21,-0.54,0.64
18.565,0.07,0.37,-0.24,0.45
18.575,-0.06,0.03,0.34,0.34
18.585,-0.19,-0.28,-0.44,0.55
18.595,-0.43,-0.17,0.53,0.71
18.605,-0.41,0.55,0.09,0.69
18.615,-0.08,0.55,-0.48,0.73
18.625,0.31,-0.21,0.11,0.39
18.636,-0.11,-0.55,-0.15,0.58
18.646,0.03,-0.29,-0.29,0.41
18.656,0.42,-0.10,0.14,0.45
18.666,-0.07,0.07,-0.19,0.22
18.676,0.45,-0.14,0.14,0.49
18.686,0.38,0.23,-0.16,0.47
18.696,-0.20,0.28,0.10,0.36
18.706,0.25,-0.00,-0.14,0.29
18.716,-0.29,-0.42,-0.32,0.60
18.726,-0.44,0.14,0.53,0.70
18.736,-0.57,0.45,-0.17,0.75
18.746,-0.39,0.33,-0.14,0.53
18.756,0.24,-0.13,0.54,0.60
18.767,0.42,-0.38,-0.74,0.93
18.777,-0.06,-0.37,0.13,0.40
