time,ax,ay,az,atotal
0.000,-0.37,0.42,-0.00,0.56
0.010,-0.17,0.33,0.08,0.38
0.020,0.10,0.15,-0.35,0.39
0.030,0.16,-0.26,-0.25,0.39
0.040,0.06,-0.39,-0.03,0.40
0.050,0.30,-0.36,-0.42,0.63
0.060,0.18,-0.11,-0.00,0.21
0.070,0.38,0.22,0.10,0.45
0.080,0.31,0.51,-0.24,0.64
0.090,0.34,0.29,0.11,0.46
0.101,-0.09,-0.15,-0.14,0.23
0.111,0.28,-0.51,-0.52,0.78
0.121,-0.34,-0.41,0.74,0.91
0.131,-0.64,0.76,-0.25,1.03
0.141,-0.26,0.63,-0.02,0.68
0.151,0.17,-0.13,-0.11,0.24
0.161,0.46,-0.37,-0.30,0.66
0.171,-0.12,-0.42,0.18,0.47
0.181,-0.02,-0.03,-0.53,0.53
0.191,0.30,-0.21,0.47,0.59
0.202,0.42,0.06,-0.43,0.61
0.212,0.42,0.26,0.07,0.49
0.222,0.55,0.35,-0.05,0.65
0.232,-0.30,0.15,-0.11,0.36
0.242,0.26,-0.63,-0.01,0.69
0.252,-0.58,-0.29,-0.07,0.65
0.262,-0.43,0.45,0.29,0.68
0.272,-0.11,0.77,-0.31,0.84
0.282,0.10,0.22,-0.11,0.27
0.292,0.08,-0.33,-0.26,0.43
0.302,-0.12,-0.36,0.17,0.41
0.312,0.61,-0.44,-0.59,0.96
0.323,-0.01,-0.37,0.19,0.42
0.333,0.20,0.38,-0.06,0.43
0.343,0.59,0.19,0.15,0.64
0.353,0.52,0.15,-0.46,0.71
0.363,0.18,0.24,-0.16,0.34
0.373,-0.17,-0.37,0.41,0.58
0.383,-0.27,-0.24,-0.96,1.02
0.393,-0.92,0.41,0.97,1.40
0.403,-0.08,0.73,-0.12,0.74
0.413,0.28,0.27,-0.74,0.84
0.424,0.10,-0.41,0.51,0.66
0.434,-0.05,-0.44,-0.52,0.68
0.444,0.22,-0.34,-0.22,0.46
0.454,0.05,-0.11,0.23,0.26
0.464,0.56,0.14,-0.48,0.75
0.474,0.65,0.01,0.69,0.95
0.484,0.25,0.14,-0.61,0.67
0.494,0.21,0.09,-0.23,0.33
0.504,-0.48,0.14,0.39,0.63
0.514,-0.10,-0.19,-0.32,0.39
0.524,-0.47,0.22,0.42,0.66
0.534,-0.15,0.47,-0.30,0.58
0.544,-0.00,0.37,-0.25,0.45
0.555,0.15,-0.37,0.25,0.47
0.565,0.11,-0.80,-0.64,1.03
0.575,0.08,-0.27,0.02,0.29
0.585,0.61,-0.08,0.15,0.64
0.595,0.08,0.31,-0.27,0.42
0.605,0.60,0.06,0.10,0.61
0.615,0.32,0.16,-0.23,0.42
0.625,0.01,-0.07,-0.08,0.11
0.635,0.01,-0.09,-0.33,0.34
0.645,-0.46,0.05,0.65,0.80
0.655,-0.43,0.31,-0.18,0.56
0.666,-0.35,0.47,-0.25,0.64
0.676,0.26,0.14,0.13,0.33
0.686,-0.11,-0.27,-0.40,0.50
0.696,0.46,-0.56,-0.01,0.73
0.706,0.03,-0.30,-0.31,0.44
0.716,0.50,-0.16,0.04,0.53
0.726,0.28,0.38,0.26,0.54
0.736,0.40,0.22,-0.33,0.56
0.746,0.28,0.09,0.05,0.30
0.756,0.05,-0.17,0.03,0.18
0.766,-0.38,0.03,-0.48,0.61
0.776,-0.24,-0.02,0.79,0.83
0.787,-0.45,0.51,-0.41,0.80
0.797,-0.18,0.37,0.00,0.41
0.807,0.40,-0.07,-0.02,0.40
0.817,-0.06,-0.44,-0.11,0.46
0.827,0.13,-0.41,-0.24,0.50
0.837,0.31,-0.43,-0.21,0.57
0.847,0.23,0.03,-0.12,0.26
0.857,0.44,0.42,0.30,0.68
0.867,0.47,0.20,-0.43,0.66
0.877,0.29,0.03,0.00,0.29
0.887,0.07,-0.17,0.08,0.20
0.897,-0.20,-0.31,-0.56,0.67
0.908,-0.70,0.47,0.44,0.95
0.918,-0.28,0.58,0.24,0.68
0.928,-0.17,0.41,-0.62,0.77
0.938,0.02,-0.38,0.03,0.38
0.948,0.52,-0.42,-0.44,0.80
0.958,-0.26,-0.21,0.83,0.89
0.968,0.58,-0.48,-0.98,1.24
0.978,0.27,-0.10,0.17,0.33
0.988,0.47,0.42,0.13,0.64
0.998,0.37,0.28,-0.14,0.49
1.008,0.21,0.01,-0.30,0.36
1.018,-0.10,-0.23,0.02,0.25
1.029,-0.19,-0.15,-0.07,0.25
1.039,-0.67,0.45,0.64,1.03
1.049,-0.22,0.64,-0.36,0.76
1.059,0.11,0.21,-0.26,0.35
1.069,0.17,-0.60,0.22,0.66
1.079,0.14,-0.31,-1.06,1.11
1.089,0.22,-0.35,1.07,1.15
1.099,0.18,-0.16,-0.94,0.98
1.109,0.17,-0.05,0.08,0.19
1.119,0.52,0.49,0.35,0.80
1.129,0.57,0.40,-0.46,0.83
1.139,-0.07,-0.17,0.08,0.20
1.150,0.28,-0.47,-0.35,0.65
1.160,-0.84,-0.02,0.52,0.99
1.170,-0.31,0.66,-0.19,0.75
1.180,-0.33,0.68,-0.01,0.76
1.190,0.23,-0.16,0.09,0.29
1.200,0.33,-0.57,-0.82,1.05
1.210,0.13,-0.39,0.47,0.63
1.220,0.20,-0.10,-0.43,0.49
1.230,0.02,-0.23,0.03,0.24
1.240,0.56,0.27,-0.53,0.82
1.250,0.59,0.39,0.51,0.87
1.260,-0.03,0.43,-0.21,0.48
1.271,0.08,-0.16,-0.12,0.21
1.281,-0.08,-0.51,-0.10,0.52
1.291,-0.67,-0.09,0.30,0.74
1.301,-0.10,0.58,0.12,0.60
1.311,0.08,0.65,0.37,0.75
1.321,-0.31,-0.24,-1.11,1.18
1.331,0.63,-0.57,-0.20,0.88
1.341,-0.08,-0.35,0.88,0.95
1.351,0.06,-0.05,-1.22,1.22
1.361,0.12,0.09,0.51,0.53
1.372,0.52,0.02,0.14,0.54
1.381,0.64,0.10,-0.69,0.95
1.392,0.18,0.24,0.45,0.54
1.402,0.04,0.16,-0.63,0.65
1.412,-0.15,-0.40,0.31,0.52
1.422,-0.65,0.12,0.20,0.69
1.432,-0.49,0.51,0.04,0.70
1.442,0.18,0.55,-0.59,0.83
1.452,0.11,0.02,0.31,0.33
1.462,0.15,-0.31,-0.21,0.40
1.472,0.21,-0.61,-0.33,0.72
1.482,0.03,-0.39,-0.22,0.45
1.492,0.23,0.26,-0.16,0.38
1.503,0.52,0.22,0.47,0.74
1.513,0.59,0.11,-0.42,0.73
1.523,0.20,0.33,-0.28,0.47
1.533,0.19,-0.19,0.35,0.44
1.543,-0.64,-0.40,-0.39,0.85
1.553,-0.34,0.05,0.17,0.39
1.563,-0.26,0.64,0.37,0.78
1.573,-0.23,0.58,-0.59,0.86
1.583,0.40,-0.11,0.12,0.43
1.593,0.29,-0.54,0.04,0.62
1.604,0.01,-0.68,-0.42,0.80
1.614,0.05,-0.11,-0.14,0.19
1.624,0.42,0.32,0.05,0.53
1.634,0.38,0.19,0.48,0.65
1.644,0.47,0.21,-0.71,0.88
1.654,0.19,0.18,-0.19,0.32
1.664,0.11,-0.12,0.35,0.39
1.674,-0.29,-0.47,-0.01,0.55
1.684,-0.51,-0.09,0.03,0.51
1.694,-0.23,0.83,-0.04,0.86
1.704,0.12,0.36,0.33,0.50
1.714,0.03,-0.02,-0.67,0.67
1.724,0.21,-0.69,0.23,0.76
1.735,0.20,-0.35,-0.18,0.45
1.745,0.27,-0.01,-0.26,0.38
1.755,0.08,0.09,0.34,0.36
1.765,0.43,0.38,-0.42,0.71
1.775,0.67,0.02,0.07,0.67
1.785,-0.04,0.14,-0.17,0.22
1.795,-0.25,-0.05,-0.10,0.27
1.805,-0.16,-0.18,0.30,0.39
1.815,-0.12,-0.08,-0.05,0.16
1.825,-0.52,0.27,0.17,0.61
1.835,0.40,0.33,-0.35,0.62
1.845,0.14,-0.05,0.16,0.22
1.856,-0.15,-0.21,-0.32,0.41
1.866,0.26,-0.49,-0.13,0.57
1.876,0.21,-0.27,-0.27,0.43
1.886,0.33,0.23,-0.18,0.44
1.896,0.30,0.44,0.52,0.75
1.906,0.67,0.36,-0.53,0.93
1.916,-0.21,-0.06,0.29,0.36
1.926,-0.18,-0.30,-0.56,0.66
1.936,0.18,-0.37,0.35,0.54
1.946,-0.46,0.29,0.05,0.54
1.956,-0.56,0.53,0.23,0.80
1.967,0.30,0.24,-0.78,0.87
1.977,0.06,-0.20,0.77,0.80
1.987,0.32,-0.12,-0.82,0.88
1.997,0.15,-0.60,-0.07,0.62
2.007,0.08,-0.13,0.21,0.26
2.017,0.32,0.24,-0.03,0.40
2.027,0.58,0.33,-0.17,0.69
2.037,0.17,0.39,0.01,0.42
2.047,0.05,0.01,-0.22,0.22
2.057,0.05,-0.46,-0.06,0.47
2.067,-0.32,-0.24,0.25,0.48
2.077,-0.31,0.39,-0.25,0.56
2.088,-0.46,0.38,0.33,0.69
2.098,0.39,0.09,-0.20,0.44
2.108,0.28,-0.32,-0.19,0.46
2.118,-0.14,-0.25,-0.14,0.32
2.128,0.22,-0.06,-0.22,0.31
2.138,0.20,-0.32,0.32,0.49
2.148,0.28,0.15,-0.48,0.58
2.158,0.51,0.21,0.43,0.70
2.168,0.39,0.38,-0.33,0.64
2.178,0.00,0.16,-0.09,0.18
2.189,-0.02,-0.38,0.29,0.48
2.199,-0.13,-0.44,-0.50,0.68
2.208,-0.24,0.21,0.81,0.88
2.219,-0.35,0.75,-0.43,0.94
2.229,0.07,0.14,-0.00,0.16
2.239,0.06,-0.32,0.05,0.33
2.249,0.08,-0.30,-0.40,0.50
2.259,0.18,-0.13,-0.04,0.23
2.269,0.23,-0.13,-0.19,0.33
2.279,0.37,-0.15,0.10,0.41
2.289,0.50,0.08,0.04,0.51
2.300,0.38,0.51,-0.04,0.64
2.309,0.17,0.32,-0.14,0.38
2.320,-0.36,-0.13,-0.25,0.46
2.330,-0.14,-0.43,-0.03,0.45
2.340,-0.22,0.11,0.33,0.41
2.350,-0.20,0.47,0.10,0.52
2.360,-0.02,0.15,-0.41,0.43
2.370,0.11,-0.35,0.12,0.39
2.380,0.26,-0.35,-0.45,0.62
2.390,-0.07,-0.21,0.04,0.23
2.400,0.17,0.07,-0.40,0.44
2.410,0.52,-0.20,0.11,0.57
2.420,0.28,0.18,-0.05,0.33
2.430,0.35,0.23,0.02,0.42
2.441,0.14,0.48,-0.45,0.67
2.451,0.02,-0.15,0.43,0.46
2.461,-0.21,-0.20,-0.30,0.42
2.471,-0.44,0.05,0.38,0.58
2.481,-0.17,0.18,0.01,0.25
2.491,0.01,0.53,-0.52,0.74
2.501,0.23,-0.26,0.54,0.64
2.511,0.13,-0.47,-0.73,0.88
2.521,-0.12,-0.32,0.37,0.50
2.531,0.23,0.12,-0.35,0.44
2.541,0.32,-0.14,-0.02,0.35
2.552,0.49,0.18,-0.16,0.54
2.562,0.50,0.22,0.31,0.63
2.572,-0.04,0.28,-0.11,0.30
2.582,0.00,0.07,-0.48,0.48
2.592,-0.15,-0.22,0.62,0.67
2.602,-0.17,-0.06,-0.14,0.23
2.612,-0.66,0.49,0.18,0.84
2.622,0.22,0.27,0.19,0.39
2.632,0.17,-0.27,-0.66,0.73
2.642,0.14,-0.53,0.13,0.56
2.652,0.28,-0.40,-0.14,0.51
2.662,-0.08,0.03,-0.27,0.28
2.672,0.30,-0.01,0.41,0.51
2.683,0.37,0.16,-0.43,0.59
2.693,0.56,0.06,0.34,0.66
2.703,-0.03,0.48,-0.36,0.60
2.713,-0.03,0.07,-0.07,0.10
2.723,-0.10,-0.26,0.26,0.38
2.733,-0.50,0.02,0.29,0.58
2.743,-0.11,0.27,-0.36,0.47
2.753,0.18,-0.10,0.28,0.35
2.763,-0.08,0.08,-0.46,0.47
2.773,0.24,-0.38,-0.11,0.46
2.784,0.27,-0.46,-0.15,0.55
2.794,0.01,-0.14,0.01,0.14
2.804,0.58,0.17,-0.10,0.61
2.814,0.34,0.30,0.23,0.51
2.824,0.33,0.26,-0.25,0.48
2.834,0.20,-0.09,-0.00,0.22
2.844,-0.40,0.09,-0.09,0.42
2.854,-0.26,0.01,0.16,0.30
2.864,-0.33,0.07,0.45,0.56
2.874,-0.15,0.42,-0.57,0.73
2.884,0.12,0.09,0.30,0.33
2.894,0.47,-0.33,-0.63,0.85
2.905,-0.13,-0.48,0.11,0.51
2.914,0.11,-0.35,-0.07,0.38
2.925,0.14,-0.11,-0.43,0.47
2.935,0.45,0.23,0.36,0.62
2.945,0.59,0.38,-0.04,0.71
2.955,0.30,0.15,-0.47,0.58
2.965,-0.09,-0.02,0.40,0.41
2.975,-0.25,-0.11,-0.36,0.45
2.985,-0.36,0.07,0.39,0.53
2.995,-0.21,0.24,0.24,0.40
3.005,-0.07,0.25,-0.43,0.50
3.015,0.26,-0.03,-0.15,0.30
3.026,0.08,-0.32,0.06,0.34
3.036,0.12,-0.23,-0.47,0.53
3.046,0.15,-0.35,0.22,0.44
3.056,0.32,-0.09,-0.58,0.67
3.066,0.43,0.19,0.39,0.61
3.076,0.43,0.41,-0.07,0.60
3.086,0.22,0.11,-0.29,0.38
3.096,-0.24,-0.04,0.09,0.26
3.106,-0.15,-0.18,-0.11,0.26
3.116,-0.38,0.30,0.26,0.55
3.126,-0.18,0.43,0.21,0.52
3.136,0.06,0.05,-0.22,0.23
3.147,0.31,-0.30,-0.37,0.57
3.157,0.07,-0.43,0.20,0.47
3.167,0.07,-0.19,-0.41,0.45
3.177,0.13,-0.29,0.12,0.34
3.187,0.31,0.05,-0.17,0.36
3.197,0.54,0.27,0.15,0.62
3.207,0.38,0.41,-0.17,0.58
3.217,0.10,0.17,-0.24,0.31
3.227,-0.23,-0.15,0.08,0.28
3.237,-0.09,-0.38,0.17,0.42
3.247,-0.57,0.38,-0.12,0.69
3.257,-0.12,0.41,0.20,0.47
3.268,0.15,-0.03,-0.27,0.31
3.277,0.10,-0.32,-0.28,0.43
3.288,0.22,-0.32,-0.20,0.44
3.298,0.17,-0.12,0.14,0.25
3.308,0.26,-0.22,-0.17,0.39
3.318,0.26,-0.16,-0.17,0.35
3.328,0.49,0.34,0.03,0.60
3.338,0.51,0.35,-0.09,0.63
3.348,-0.29,0.28,-0.15,0.42
3.358,-0.25,0.03,0.06,0.26
3.368,-0.20,-0.21,0.25,0.38
3.379,-0.44,0.32,-0.17,0.57
3.389,0.15,0.33,0.11,0.38
3.398,-0.00,-0.24,0.22,0.33
3.409,0.14,-0.24,-0.84,0.89
3.419,0.22,-0.45,0.37,0.62
3.429,0.15,-0.04,-0.31,0.34
3.439,0.19,-0.01,-0.32,0.37
3.449,0.49,-0.09,0.41,0.64
3.459,0.15,0.28,-0.23,0.40
3.469,0.26,0.30,-0.06,0.40
3.479,0.08,0.34,-0.01,0.35
3.489,-0.06,-0.28,-0.10,0.31
3.500,-0.17,-0.28,0.17,0.37
3.510,-0.50,0.33,0.17,0.63
3.520,-0.06,0.59,-0.54,0.80
3.530,0.07,-0.00,0.16,0.17
3.540,0.30,-0.48,-0.19,0.60
3.550,0.07,-0.54,-0.18,0.57
3.560,0.24,-0.08,-0.23,0.34
3.570,0.25,0.08,0.07,0.27
3.580,0.39,0.12,-0.21,0.45
3.590,0.24,0.22,0.33,0.46
3.600,0.53,0.07,-0.47,0.71
3.610,-0.27,0.20,-0.02,0.34
3.621,0.01,-0.04,0.01,0.04
3.631,-0.33,-0.20,0.56,0.68
3.641,-0.31,0.19,-0.36,0.51
3.651,0.01,0.32,-0.03,0.33
3.661,0.12,0.14,0.00,0.18
3.671,0.12,-0.44,-0.12,0.47
3.681,0.05,-0.29,-0.59,0.66
3.691,0.40,-0.42,0.34,0.67
3.701,0.11,0.24,-0.38,0.46
3.711,0.42,0.15,0.31,0.54
3.721,0.45,0.11,0.01,0.47
3.732,0.20,0.34,-0.56,0.69
3.742,0.11,-0.10,0.54,0.56
3.752,-0.39,0.11,-0.42,0.58
3.762,-0.16,-0.30,0.48,0.59
3.772,-0.31,0.37,-0.36,0.60
3.782,-0.06,0.22,0.44,0.50
3.792,0.27,0.11,-0.79,0.84
3.802,-0.13,-0.38,0.40,0.57
3.812,0.32,-0.38,-0.54,0.74
3.822,0.13,-0.26,0.15,0.33
3.832,0.36,0.08,-0.13,0.39
3.842,0.42,0.41,-0.28,0.65
3.853,0.59,0.26,0.13,0.66
3.863,0.18,0.12,-0.17,0.28
3.873,-0.31,0.06,-0.46,0.56
3.883,0.01,-0.21,0.38,0.43
3.893,-0.53,0.03,0.08,0.54
3.903,-0.13,0.34,-0.01,0.37
3.913,-0.02,0.10,-0.01,0.10
3.923,0.12,-0.06,-0.23,0.26
3.933,0.09,-0.24,-0.06,0.26
3.943,0.47,-0.43,-0.07,0.65
3.954,-0.01,-0.20,-0.07,0.22
3.964,0.23,-0.04,0.10,0.25
3.974,0.68,0.56,-0.49,1.01
3.984,0.15,0.29,0.88,0.94
3.994,0.21,0.17,-1.02,1.06
4.004,-0.10,-0.05,0.35,0.37
4.014,-0.03,-0.22,0.01,0.22
4.024,-0.42,0.10,-0.04,0.43
4.034,0.00,0.20,0.24,0.32
4.044,-0.07,0.07,-0.10,0.15
4.054,-0.07,-0.08,-0.32,0.33
4.064,0.16,-0.20,0.04,0.26
4.074,0.38,-0.33,0.05,0.51
4.085,0.21,-0.36,-0.36,0.55
4.094,0.13,-0.02,0.41,0.43
4.105,0.66,0.37,-0.78,1.08
4.115,0.31,0.19,0.64,0.74
4.125,0.11,0.50,-0.30,0.59
4.135,-0.15,-0.09,-0.11,0.21
4.145,-0.12,-0.19,-0.08,0.24
4.155,-0.33,0.06,0.50,0.60
4.165,-0.13,0.24,-0.15,0.31
4.175,0.02,0.08,-0.03,0.09
4.185,0.22,-0.14,-0.26,0.37
4.195,0.02,-0.27,-0.03,0.27
4.206,-0.09,-0.09,-0.38,0.40
4.215,0.29,-0.38,0.42,0.64
4.226,0.31,-0.10,-0.53,0.62
4.236,0.70,0.28,-0.17,0.78
4.246,0.24,0.71,-0.24,0.78
4.256,0.26,0.06,0.52,0.58
4.266,0.03,-0.08,-0.48,0.48
4.276,-0.42,-0.33,0.27,0.60
4.286,-0.23,-0.11,0.11,0.28
4.296,-0.32,0.60,0.02,0.68
4.306,0.12,0.08,-0.07,0.16
4.316,-0.06,-0.23,0.22,0.32
4.327,0.19,-0.28,-0.51,0.61
4.337,0.04,-0.25,0.12,0.29
4.347,0.27,-0.10,-0.39,0.48
4.357,0.28,-0.15,0.44,0.54
4.367,0.70,0.24,-0.72,1.03
4.377,0.27,0.16,0.28,0.42
4.387,0.26,0.38,-0.10,0.47
4.397,-0.19,0.26,-0.10,0.34
4.407,-0.18,-0.25,0.06,0.31
4.417,-0.38,-0.23,0.48,0.65
4.427,-0.29,0.35,-0.48,0.66
4.438,0.04,0.29,0.30,0.41
4.448,0.31,-0.09,-0.12,0.35
4.458,0.10,-0.50,-0.32,0.60
4.468,0.06,-0.40,-0.20,0.45
4.478,0.09,-0.09,0.10,0.16
4.488,0.14,-0.07,0.18,0.24
4.498,0.79,0.24,-0.69,1.07
4.508,0.22,0.23,0.65,0.72
4.518,0.51,0.47,-0.83,1.08
4.528,-0.29,0.13,0.76,0.82
4.538,-0.30,0.04,-0.61,0.68
4.548,-0.17,-0.34,0.70,0.79
4.559,-0.10,0.13,-0.37,0.40
4.569,-0.20,0.44,-0.13,0.50
4.579,0.12,-0.11,0.53,0.55
4.589,0.28,-0.35,-1.05,1.14
4.599,-0.02,-0.47,0.60,0.76
4.609,0.51,-0.07,-0.67,0.84
4.619,-0.05,-0.03,0.61,0.61
4.629,0.72,0.10,-0.75,1.05
4.639,0.22,0.12,0.58,0.63
4.649,0.39,0.41,-0.83,1.01
4.659,-0.07,0.10,0.71,0.72
4.669,-0.41,-0.08,-0.25,0.48
4.680,-0.22,-0.24,0.28,0.43
4.690,-0.22,0.30,-0.15,0.40
4.700,-0.13,0.29,0.19,0.37
4.710,0.38,0.01,-0.45,0.59
4.720,-0.04,-0.46,0.45,0.65
4.730,0.30,-0.48,-0.74,0.93
4.740,0.02,-0.18,0.34,0.38
4.750,0.32,0.15,-0.06,0.36
4.760,0.36,0.22,-0.20,0.47
4.770,0.59,0.12,0.22,0.64
4.780,0.21,0.24,-0.43,0.53
4.790,-0.09,0.01,0.03,0.09
4.801,-0.05,-0.04,-0.03,0.07
4.811,-0.48,0.02,0.63,0.79
4.821,-0.47,0.37,-0.18,0.63
4.831,0.17,0.12,-0.57,0.60
4.841,-0.04,0.04,0.47,0.48
4.851,0.43,-0.47,-0.63,0.90
4.861,0.13,-0.46,0.03,0.48
4.871,0.13,-0.25,0.28,0.40
4.881,0.40,0.21,-0.60,0.75
4.891,0.44,0.42,0.48,0.78
4.902,0.42,0.08,-0.05,0.43
4.911,0.25,0.08,-0.59,0.65
4.922,-0.18,-0.07,0.36,0.41
4.932,-0.41,0.18,-0.21,0.49
4.942,-0.30,-0.04,0.59,0.66
4.952,-0.20,0.46,-0.69,0.85
4.962,0.18,-0.08,0.57,0.60
4.972,0.25,-0.14,-0.55,0.62
4.982,0.01,-0.36,-0.14,0.39
4.992,0.23,-0.39,-0.08,0.46
5.002,0.12,-0.09,-0.14,0.21
5.012,0.43,0.19,0.02,0.47
5.023,0.42,0.44,0.23,0.65
5.032,0.37,0.14,-0.41,0.57
5.043,0.21,0.03,-0.00,0.21
5.053,-0.03,-0.16,0.12,0.21
5.063,-0.37,-0.06,-0.03,0.38
5.073,-0.45,0.20,0.51,0.71
5.083,-0.26,0.46,-0.36,0.64
5.093,0.10,0.10,-0.05,0.15
5.103,0.21,-0.30,0.04,0.37
5.113,0.15,-0.28,-0.42,0.52
5.123,0.24,-0.41,0.14,0.50
5.133,0.25,-0.16,-0.22,0.36
5.143,0.21,0.13,0.14,0.29
5.154,0.66,0.26,0.02,0.71
5.164,0.17,0.50,-0.30,0.61
5.174,0.27,-0.18,0.24,0.41
5.184,-0.33,-0.23,-0.29,0.50
5.194,-0.17,-0.18,0.28,0.37
5.204,-0.61,0.65,0.17,0.90
5.214,0.12,0.33,-0.12,0.37
5.224,0.01,-0.26,-0.22,0.34
5.234,0.40,-0.43,-0.32,0.67
5.244,0.04,-0.12,-0.00,0.13
5.254,0.18,-0.15,-0.21,0.31
5.264,0.13,-0.20,-0.03,0.24
5.275,0.45,0.10,0.26,0.53
5.285,0.24,0.54,-0.18,0.62
5.295,0.37,0.22,0.01,0.43
5.305,0.33,-0.19,-0.30,0.48
5.315,-0.34,-0.37,0.40,0.64
5.325,-0.36,0.05,0.16,0.39
5.335,-0.29,0.48,0.35,0.66
5.345,-0.14,0.47,-1.12,1.22
5.355,0.07,-0.31,0.82,0.88
5.365,0.16,-0.25,-0.52,0.60
5.375,0.08,-0.36,-0.02,0.37
5.386,0.38,-0.14,-0.17,0.44
5.395,0.38,-0.18,0.03,0.42
5.406,0.39,0.13,0.20,0.46
5.416,0.52,0.24,-0.12,0.59
5.426,-0.11,0.32,-0.01,0.34
5.436,0.15,-0.14,-0.57,0.61
5.446,-0.12,-0.37,0.56,0.68
5.456,-0.60,0.38,0.02,0.72
5.466,-0.44,0.52,-0.18,0.70
5.476,0.25,0.30,-0.01,0.39
5.486,0.28,-0.24,0.10,0.38
5.496,0.28,-0.78,-0.43,0.93
5.507,-0.03,-0.28,-0.03,0.28
5.517,0.06,0.09,-0.01,0.10
5.527,0.30,0.04,-0.15,0.33
5.537,0.46,0.22,0.22,0.56
5.547,0.50,0.18,-0.07,0.54
5.557,0.19,0.31,-0.27,0.45
5.567,-0.05,-0.06,0.21,0.22
5.577,-0.25,-0.22,0.07,0.34
5.587,-0.65,0.28,0.01,0.71
5.597,-0.08,0.46,0.00,0.46
5.607,-0.07,0.16,-0.11,0.21
5.618,0.47,-0.47,-0.15,0.69
5.628,0.16,-0.66,-0.13,0.69
5.638,0.04,-0.14,-0.25,0.29
5.648,0.32,0.18,0.19,0.42
5.658,0.25,0.17,-0.64,0.71
5.668,0.37,-0.00,0.74,0.83
5.678,0.45,0.22,-0.30,0.58
5.688,0.00,0.12,0.00,0.12
5.698,-0.04,0.03,-0.28,0.28
5.708,-0.19,-0.45,0.80,0.93
5.718,-0.34,0.35,-0.46,0.67
5.728,-0.42,0.46,0.39,0.73
5.739,0.29,0.34,-0.43,0.62
5.749,0.15,-0.36,0.00,0.39
5.759,0.32,-0.55,-0.18,0.66
5.769,-0.00,-0.28,-0.05,0.28
5.779,0.14,-0.08,-0.12,0.20
5.789,0.36,0.27,-0.21,0.49
5.799,0.60,0.30,0.54,0.86
5.809,0.36,0.17,-0.41,0.57
5.819,-0.06,-0.02,-0.17,0.18
5.829,0.04,-0.13,0.30,0.33
5.839,-0.20,-0.27,0.22,0.40
5.849,-0.66,0.28,-0.07,0.72
5.859,-0.04,0.52,-0.11,0.53
5.870,0.14,0.11,0.33,0.38
5.880,0.13,-0.33,-0.69,0.78
5.890,0.30,-0.56,0.19,0.66
5.900,0.26,-0.36,-0.22,0.49
5.910,0.13,0.11,-0.18,0.24
5.920,0.38,0.50,0.29,0.69
5.930,0.52,0.30,-0.15,0.62
5.940,0.07,-0.00,-0.30,0.30
5.950,0.06,-0.08,-0.06,0.11
5.960,-0.14,-0.03,0.27,0.30
5.971,-0.22,-0.09,-0.24,0.33
5.981,-0.31,0.19,0.30,0.47
5.991,-0.14,0.43,-0.04,0.45
6.001,0.31,0.14,-0.49,0.60
6.011,0.03,-0.23,0.22,0.32
6.021,0.24,-0.49,-0.33,0.63
6.031,0.06,-0.39,0.06,0.40
6.041,0.25,-0.05,-0.37,0.45
6.051,0.39,0.37,0.23,0.59
6.061,0.60,0.50,-0.08,0.79
6.071,0.05,0.11,-0.08,0.15
6.082,0.01,-0.16,-0.20,0.26
6.092,0.02,-0.31,0.04,0.31
6.102,-0.56,0.17,0.37,0.69
6.111,-0.09,0.30,-0.02,0.31
6.122,-0.01,0.14,-0.08,0.16
6.132,0.17,0.09,-0.40,0.45
6.142,0.11,-0.22,0.41,0.48
6.152,0.22,-0.33,-0.41,0.57
6.162,0.07,-0.43,-0.02,0.43
6.172,0.17,-0.14,-0.31,0.38
6.182,0.61,0.28,0.22,0.71
6.192,0.48,0.58,-0.04,0.76
6.203,0.19,0.31,-0.36,0.52
6.213,-0.08,-0.13,0.21,0.26
6.223,-0.18,-0.12,-0.38,0.44
6.233,-0.38,0.08,0.55,0.68
6.243,0.00,0.21,0.08,0.22
6.253,-0.08,0.10,-0.30,0.32
6.263,0.18,-0.21,0.12,0.30
6.273,0.18,-0.21,-0.29,0.40
6.283,0.09,-0.18,0.04,0.21
6.293,-0.01,-0.23,-0.06,0.24
6.303,0.35,-0.35,-0.02,0.50
6.313,0.28,0.24,-0.10,0.39
6.324,0.64,0.55,-0.49,0.98
6.333,0.22,0.19,0.54,0.61
6.344,0.16,0.36,-0.79,0.88
6.354,-0.37,-0.49,0.80,1.01
6.364,-0.07,-0.29,-0.32,0.44
6.374,-0.68,0.37,0.50,0.92
6.384,0.10,0.48,-0.16,0.51
6.394,0.11,-0.20,-0.14,0.27
6.404,0.10,-0.31,-0.24,0.41
6.414,0.30,-0.30,0.21,0.47
6.424,-0.08,-0.08,-0.26,0.28
6.435,0.32,-0.37,0.38,0.62
6.444,0.59,0.19,-0.61,0.87
6.455,0.32,0.47,-0.25,0.62
6.465,0.29,0.20,0.57,0.67
6.475,0.24,0.36,-0.30,0.53
6.485,-0.55,-0.22,-0.07,0.60
6.495,-0.17,-0.34,0.11,0.40
6.505,-0.38,0.22,0.36,0.57
6.515,-0.08,0.53,-0.46,0.71
6.525,0.20,-0.20,0.24,0.38
6.535,0.18,-0.32,-0.54,0.65
6.545,0.09,-0.41,0.33,0.53
6.556,0.19,-0.28,-0.24,0.42
6.566,-0.08,-0.07,-0.20,0.23
6.576,0.53,0.10,0.17,0.56
6.586,0.79,0.27,-0.42,0.93
6.596,-0.00,0.18,0.28,0.33
6.606,0.46,0.44,-0.43,0.77
6.616,-0.32,-0.11,0.47,0.58
6.626,-0.50,-0.23,-0.31,0.63
6.636,-0.34,0.19,0.26,0.47
6.646,-0.11,0.41,0.13,0.45
6.656,0.18,0.13,-0.61,0.65
6.666,0.13,-0.42,0.46,0.64
6.677,0.33,-0.43,-0.77,0.94
6.687,-0.02,-0.24,0.69,0.73
6.697,0.33,-0.04,-0.48,0.59
6.707,0.49,-0.13,-0.24,0.56
6.717,0.45,0.26,0.00,0.52
6.727,0.42,0.20,-0.07,0.47
6.737,0.06,0.36,-0.09,0.37
6.747,-0.33,0.18,0.06,0.38
6.757,-0.43,-0.06,0.13,0.45
6.767,-0.34,0.08,0.14,0.38
6.777,-0.23,0.23,-0.27,0.42
6.787,0.31,-0.09,0.02,0.33
6.798,0.64,-0.33,-0.49,0.88
6.808,-0.09,-0.45,0.18,0.50
6.818,0.12,-0.45,-0.05,0.46
6.828,-0.17,-0.07,-0.05,0.19
6.838,0.54,0.33,-0.17,0.65
6.848,0.88,0.41,-0.74,1.22
6.858,0.22,0.10,0.81,0.84
6.868,0.02,0.19,-0.14,0.23
6.878,-0.46,0.19,-0.12,0.51
6.888,-0.23,-0.28,0.43,0.56
6.898,-0.52,0.19,0.01,0.55
6.908,0.08,0.14,-0.34,0.38
6.919,-0.20,0.09,0.25,0.33
6.928,0.56,-0.43,-0.22,0.74
6.939,0.14,-0.55,-0.32,0.65
6.949,0.30,-0.27,0.10,0.41
6.959,0.09,-0.08,0.19,0.22
6.969,0.51,0.26,-0.68,0.89
6.979,0.54,0.33,0.40,0.75
6.989,0.38,0.21,-0.09,0.44
6.999,-0.24,0.11,0.03,0.26
7.009,-0.27,0.21,-0.13,0.36
7.020,-0.42,0.01,0.52,0.67
7.029,-0.14,-0.00,-0.12,0.18
7.040,0.04,0.10,-0.09,0.14
7.049,0.22,-0.12,-0.09,0.27
7.060,0.09,-0.23,-0.30,0.39
7.070,0.14,-0.41,0.28,0.52
7.080,0.09,-0.18,-0.73,0.76
7.090,0.25,-0.07,0.49,0.56
7.100,0.49,0.39,-0.14,0.64
7.110,0.55,0.17,0.15,0.60
7.120,0.16,0.17,-0.48,0.54
7.130,0.02,-0.12,0.35,0.37
7.140,-0.34,-0.03,-0.18,0.38
7.150,-0.36,0.18,0.55,0.68
7.161,-0.30,0.47,-0.43,0.70
7.171,0.16,-0.05,0.05,0.18
7.181,0.20,-0.14,-0.08,0.26
7.191,0.10,-0.23,-0.35,0.44
7.201,0.22,-0.48,0.24,0.58
7.211,0.27,-0.12,-0.60,0.67
7.221,0.10,0.05,0.47,0.49
7.231,0.83,0.24,-0.24,0.90
7.241,0.06,0.22,0.36,0.42
7.251,0.28,0.33,-0.63,0.76
7.261,-0.05,-0.21,0.31,0.38
7.272,-0.28,-0.12,-0.03,0.30
7.282,-0.46,0.48,0.40,0.77
7.292,0.04,0.17,-0.20,0.26
7.302,-0.11,-0.07,-0.41,0.43
7.312,0.23,-0.38,0.08,0.45
7.322,0.33,-0.12,-0.34,0.49
7.332,-0.02,-0.32,0.19,0.38
7.342,0.11,-0.25,-0.50,0.57
7.352,0.47,-0.06,0.43,0.64
7.362,0.68,0.53,-0.66,1.08
7.372,0.45,-0.01,0.66,0.80
7.382,0.05,0.23,-0.72,0.75
7.392,-0.49,0.08,0.24,0.55
7.403,-0.27,0.00,0.34,0.44
7.413,-0.29,0.35,-0.00,0.45
7.423,-0.04,0.18,0.23,0.29
7.433,0.18,-0.12,-0.84,0.86
7.443,0.21,-0.36,0.19,0.46
7.453,0.08,-0.11,-0.27,0.30
7.463,-0.07,-0.15,0.06,0.18
7.473,0.35,-0.41,0.01,0.54
7.483,0.50,0.18,-0.59,0.79
7.493,0.87,0.19,0.56,1.06
7.504,-0.02,0.35,-0.27,0.45
7.514,-0.11,0.12,-0.02,0.17
7.524,-0.18,0.16,0.04,0.25
7.534,-0.48,0.07,0.34,0.60
7.544,-0.10,0.02,-0.18,0.21
7.554,0.00,0.14,-0.29,0.32
7.564,0.26,-0.14,0.22,0.37
7.574,0.27,-0.43,-0.42,0.66
7.584,-0.05,-0.34,0.23,0.41
7.594,0.18,0.01,-0.51,0.54
7.604,-0.01,-0.17,0.24,0.30
7.614,0.63,-0.01,-0.21,0.67
7.625,0.65,0.36,-0.24,0.78
7.635,0.24,0.39,0.21,0.50
7.645,-0.18,0.39,0.01,0.42
7.655,-0.42,-0.05,0.21,0.47
7.665,-0.12,-0.05,-0.25,0.28
7.675,-0.33,0.08,0.35,0.49
7.685,0.16,0.18,-0.21,0.32
7.695,0.21,-0.15,-0.37,0.45
7.705,0.25,-0.44,0.18,0.54
7.715,0.01,-0.21,-0.24,0.32
7.725,0.13,-0.09,0.03,0.16
7.735,0.26,0.05,-0.14,0.29
7.745,0.69,0.45,-0.82,1.16
7.756,0.64,0.07,0.95,1.15
7.766,-0.33,0.44,-0.52,0.76
7.776,-0.13,-0.14,-0.05,0.20
7.786,0.04,-0.43,0.31,0.54
7.796,-0.50,-0.06,0.60,0.78
7.806,-0.11,0.44,-0.83,0.94
7.816,0.09,0.19,0.49,0.54
7.826,0.33,0.10,-0.21,0.40
7.836,0.11,-0.53,-0.08,0.54
7.847,0.10,-0.56,-0.11,0.58
7.857,0.04,-0.19,0.11,0.22
7.867,0.25,0.27,-0.39,0.53
7.877,0.52,0.52,-0.27,0.78
7.887,0.63,0.28,0.20,0.72
7.897,0.18,-0.03,-0.15,0.24
7.907,-0.13,-0.10,0.01,0.17
7.917,-0.40,-0.29,0.56,0.74
7.927,-0.53,0.21,-0.26,0.63
7.937,0.05,0.33,-0.06,0.33
7.947,0.32,0.50,-0.17,0.62
7.957,1.11,0.62,0.20,1.28
7.967,0.76,0.67,0.08,1.02
7.977,0.16,-0.04,-0.39,0.42
7.988,0.17,-0.67,-0.05,0.69
7.998,0.06,-0.67,0.21,0.71
8.008,-0.04,-0.54,-0.45,0.70
8.018,0.10,-0.32,0.25,0.42
8.028,0.12,0.01,-0.22,0.25
8.038,0.31,-0.06,-0.30,0.43
8.048,-0.41,0.00,0.58,0.71
8.058,-0.42,0.33,-0.62,0.82
8.068,-0.28,0.39,0.59,0.76
8.078,-0.26,0.46,-0.46,0.71
8.088,0.05,0.01,-0.32,0.33
8.099,0.21,-0.53,0.37,0.68
8.109,0.30,-0.37,-0.39,0.62
8.119,0.18,-0.29,0.11,0.36
8.129,0.08,-0.01,-0.44,0.44
8.139,-0.19,0.21,0.28,0.40
8.149,0.25,-0.11,-0.57,0.63
8.159,0.07,-0.26,0.09,0.28
8.169,-0.58,0.72,0.13,0.93
8.179,-0.74,0.93,0.20,1.21
8.189,-0.51,0.59,0.11,0.78
8.200,-0.33,0.05,0.09,0.34
8.209,0.09,0.08,-0.40,0.42
8.220,1.31,-0.46,0.66,1.53
8.230,0.50,-0.23,-0.69,0.88
8.240,0.48,-0.68,0.65,1.06
8.250,-0.13,-0.72,0.47,0.88
8.260,-0.79,-0.43,0.46,1.01
8.270,-0.53,-0.17,-0.43,0.70
8.280,-0.11,0.07,-0.85,0.86
8.290,1.62,0.32,0.47,1.71
8.300,0.93,1.12,-0.44,1.52
8.310,0.70,0.79,-0.74,1.29
8.320,0.27,0.07,0.11,0.30
8.331,-0.24,-0.58,0.21,0.66
8.341,-0.35,-0.85,-0.42,1.01
8.351,0.02,-0.74,-0.27,0.79
8.361,0.12,-0.34,-0.12,0.38
8.371,0.29,0.05,-0.02,0.29
8.381,0.33,0.08,-0.46,0.57
8.391,0.34,-0.12,0.01,0.36
8.401,0.52,0.27,-0.58,0.82
8.411,0.85,0.03,-0.46,0.96
8.421,0.41,0.16,-0.07,0.44
8.432,-0.05,0.62,-0.47,0.78
8.441,-0.05,0.11,0.63,0.64
8.452,-0.49,0.27,-0.75,0.94
8.462,0.09,-0.21,0.24,0.33
8.472,0.26,-0.62,0.18,0.69
8.482,0.02,-0.17,-1.27,1.28
8.492,0.05,-0.18,0.54,0.57
8.502,-0.93,0.67,3.19,3.39
8.512,-0.54,0.75,-1.98,2.19
8.522,0.32,0.08,-0.19,0.38
8.532,0.60,0.40,0.79,1.07
8.542,0.54,0.44,-0.89,1.13
8.553,0.27,-0.38,0.66,0.81
8.563,-0.03,-0.25,-0.48,0.54
8.573,-0.09,-0.85,0.46,0.97
8.583,-0.47,-0.22,0.18,0.55
8.593,-0.13,0.46,-0.49,0.69
8.603,0.11,0.37,0.28,0.48
8.613,0.32,-0.10,-0.26,0.42
8.623,-0.08,-0.35,-0.20,0.41
8.633,0.10,-0.38,0.11,0.41
8.643,0.30,-0.16,-0.23,0.41
8.653,0.36,-0.04,0.01,0.36
8.663,0.28,0.35,0.12,0.46
8.673,0.82,0.36,-0.67,1.11
8.683,-0.09,0.49,0.50,0.70
8.694,0.26,-0.18,-0.41,0.52
8.704,-0.60,-0.30,0.30,0.74
8.714,-0.19,0.02,0.34,0.39
8.724,-0.41,0.42,-0.42,0.72
8.734,0.07,0.27,-0.03,0.28
8.744,0.54,-0.26,0.15,0.61
8.754,0.02,-0.39,-0.40,0.56
8.764,-0.01,-0.21,0.01,0.21
8.774,0.43,-0.15,-0.19,0.49
8.784,0.03,-0.01,0.27,0.27
8.794,0.85,0.09,-0.16,0.87
8.805,0.16,0.22,0.07,0.29
8.815,0.15,0.40,-0.32,0.53
8.825,-0.17,-0.03,0.34,0.38
8.835,-0.18,-0.38,0.00,0.42
8.845,-0.47,0.29,0.23,0.60
8.855,0.08,0.45,-0.12,0.47
8.865,-0.07,0.20,0.02,0.22
8.875,0.11,-0.29,0.01,0.31
8.885,0.40,-0.73,-0.76,1.13
8.895,-0.26,-0.41,0.64,0.80
8.906,0.54,0.06,-0.68,0.87
8.915,0.25,0.16,0.30,0.43
8.926,0.53,0.26,-0.16,0.61
8.936,0.60,0.20,-0.15,0.65
8.946,-0.18,0.21,0.25,0.37
8.956,-0.08,-0.05,-0.25,0.26
8.966,-0.40,-0.14,0.37,0.56
8.976,-0.13,0.20,-0.03,0.24
8.986,-0.33,0.29,0.03,0.44
8.996,0.37,0.00,-0.17,0.41
9.006,-0.06,-0.14,0.07,0.17
9.016,0.42,-0.61,-0.53,0.91
9.026,-0.06,-0.28,0.09,0.31
9.037,0.36,0.06,-0.08,0.38
9.047,0.31,0.23,0.16,0.42
9.057,0.59,0.14,0.09,0.62
9.067,0.31,0.23,-0.64,0.75
9.077,0.01,0.12,0.17,0.20
9.087,0.19,-0.27,0.19,0.38
9.097,-0.59,0.18,0.12,0.63
9.107,-0.30,0.04,-0.14,0.33
9.117,-0.25,0.18,0.15,0.34
9.127,0.25,0.29,-0.16,0.42
9.137,0.25,-0.24,-0.23,0.42
9.147,0.33,-0.46,-0.41,0.70
9.157,0.06,-0.41,0.52,0.66
9.168,0.12,0.05,-0.49,0.51
9.178,0.53,0.04,0.27,0.60
9.188,0.61,0.66,-0.25,0.93
9.198,0.22,-0.01,0.15,0.27
9.208,-0.01,-0.05,-0.43,0.43
9.218,-0.24,-0.17,0.24,0.38
9.228,-0.24,0.05,0.45,0.51
9.238,-0.13,0.51,-0.40,0.66
9.248,-0.30,0.22,0.49,0.61
9.258,0.10,-0.29,-0.50,0.58
9.268,0.04,-0.25,0.03,0.26
9.278,0.52,-0.46,-0.36,0.78
9.289,0.03,-0.24,0.01,0.24
9.299,0.37,0.01,-0.06,0.37
9.309,0.49,0.27,-0.18,0.59
9.319,0.27,0.32,0.31,0.52
9.329,0.50,0.14,-0.56,0.76
9.339,-0.26,-0.07,0.36,0.45
9.349,0.04,-0.35,-0.38,0.52
9.359,-0.63,0.44,0.17,0.79
9.369,-0.22,0.74,0.61,0.98
9.380,0.06,0.22,-0.94,0.97
9.390,0.11,-0.53,0.17,0.57
9.400,0.37,-0.44,0.10,0.58
9.410,0.16,-0.21,-0.41,0.49
9.420,0.28,-0.31,-0.27,0.50
9.430,0.09,0.02,-0.03,0.10
9.440,0.60,0.36,0.06,0.70
9.450,0.49,0.45,-0.07,0.67
9.460,-0.09,0.03,0.15,0.17
9.470,-0.11,-0.07,-0.46,0.48
9.480,0.25,-0.25,0.50,0.61
9.490,-1.02,0.27,-0.08,1.06
9.500,-0.07,0.67,-0.33,0.75
9.510,0.11,-0.10,0.61,0.63
9.521,0.37,-0.38,-1.26,1.36
9.531,0.16,-0.22,1.02,1.06
9.541,0.44,-0.36,-0.64,0.86
9.551,-0.01,-0.06,-0.52,0.53
9.561,0.23,0.07,0.64,0.69
9.571,0.18,0.31,0.01,0.36
9.581,0.74,0.10,-0.54,0.92
9.591,0.01,0.33,0.39,0.51
9.601,0.25,-0.24,-0.06,0.35
9.611,-0.41,-0.37,0.16,0.58
9.622,-0.70,0.46,0.18,0.86
9.632,-0.19,0.70,-0.39,0.83
9.642,0.43,-0.07,-0.02,0.44
9.652,0.31,-0.51,-0.09,0.61
9.662,0.03,-0.36,-0.19,0.41
9.672,0.29,-0.26,0.05,0.40
9.682,-0.13,0.13,-0.15,0.23
9.692,0.48,0.03,0.04,0.48
9.702,0.39,0.18,0.22,0.48
9.712,0.49,0.25,-0.80,0.97
9.722,0.16,0.20,0.39,0.46
9.732,-0.32,0.20,-0.11,0.39
9.743,-0.34,-0.34,0.39,0.61
9.753,-0.31,0.28,-0.52,0.67
9.763,-0.26,0.47,0.47,0.72
9.773,0.35,-0.05,-0.38,0.52
9.783,0.11,-0.53,-0.16,0.56
9.793,0.38,-0.28,-0.16,0.50
9.803,0.13,-0.20,0.14,0.28
9.813,0.13,0.10,-0.34,0.38
9.823,0.51,0.17,0.20,0.57
9.833,0.48,0.22,0.08,0.54
9.843,0.21,0.14,-0.40,0.47
9.853,-0.03,0.13,0.24,0.27
9.864,0.05,-0.42,-0.29,0.52
9.874,-0.19,-0.05,0.27,0.33
9.884,-0.24,0.42,0.44,0.65
9.894,0.73,0.31,-0.51,0.94
9.904,0.47,-0.05,3.77,3.80
9.914,-0.10,0.10,-2.15,2.16
9.924,0.73,-0.26,-1.90,2.05
9.934,0.38,-0.40,1.55,1.64
9.944,0.33,0.80,-0.03,0.87
9.954,0.57,0.58,-0.85,1.18
9.964,0.31,-0.01,-0.03,0.31
9.975,0.27,-0.20,-0.54,0.64
9.985,0.21,-0.38,0.13,0.45
9.995,-0.34,-0.31,0.63,0.78
10.005,-0.71,-0.02,-0.04,0.71
10.015,-0.76,0.09,-0.30,0.83
10.025,-0.40,-0.18,-0.41,0.60
10.035,-0.43,-0.29,-0.89,1.03
10.045,-0.02,-0.78,0.44,0.89
10.055,-0.57,-0.48,1.79,1.94
10.065,0.23,0.06,-2.26,2.27
10.075,-0.11,0.76,-0.22,0.80
10.085,1.57,0.73,-0.25,1.75
10.095,0.17,0.08,1.15,1.17
10.106,0.59,0.02,-1.14,1.28
10.116,-0.31,-0.75,-0.22,0.84
10.126,-0.16,0.42,-1.62,1.68
10.136,-0.35,1.60,-0.96,1.90
10.146,-0.11,2.77,-3.61,4.55
10.156,-0.71,1.35,-0.86,1.75
10.166,1.73,-5.28,10.27,11.67
10.176,-1.58,4.21,-4.57,6.41
10.186,1.07,-1.97,3.03,3.77
10.196,-1.11,-0.89,-3.86,4.12
10.207,2.60,-2.13,2.73,4.33
10.216,-0.48,-1.00,-0.56,1.25
10.227,0.53,0.09,-1.23,1.34
10.237,0.42,0.47,1.95,2.05
10.247,-0.53,0.62,-1.50,1.70
10.257,-0.22,-0.10,0.31,0.40
10.267,0.13,0.00,0.46,0.48
10.277,-0.44,0.29,-0.20,0.56
10.287,-0.16,0.30,-0.19,0.39
10.297,0.14,0.08,0.22,0.27
10.307,0.11,-0.21,-0.51,0.56
10.317,0.16,-0.39,0.07,0.43
10.327,0.67,-0.40,-0.11,0.79
10.338,0.09,0.03,0.07,0.12
10.348,0.33,0.41,-0.23,0.58
10.358,0.56,0.40,0.32,0.76
10.368,-0.25,0.20,-0.22,0.39
10.378,0.50,-0.36,-0.30,0.69
10.388,-0.14,-0.17,0.11,0.24
10.398,-0.57,0.43,0.44,0.84
10.408,-0.48,0.58,0.28,0.81
10.418,0.03,0.11,-0.64,0.65
10.428,0.50,-0.34,-0.23,0.65
10.438,0.03,-0.17,0.70,0.72
10.448,0.43,-0.27,-1.01,1.13
10.459,-0.25,-0.47,0.56,0.77
10.469,0.53,0.03,-0.75,0.92
10.479,0.56,0.18,0.80,0.99
10.489,0.43,0.48,-0.51,0.82
10.499,0.16,0.29,-0.05,0.33
10.509,-0.10,-0.08,0.15,0.20
10.519,-0.13,-0.31,-0.15,0.37
10.529,-0.14,-0.22,-0.32,0.42
10.539,-0.18,0.26,0.89,0.95
10.549,-0.15,0.10,-0.52,0.55
10.559,-0.30,-0.06,-0.32,0.44
10.570,0.59,-0.17,0.24,0.66
10.580,-0.14,-0.17,0.16,0.27
10.590,0.57,-0.25,-1.01,1.19
10.600,0.32,-0.17,0.92,0.99
10.610,0.44,0.36,-0.15,0.59
10.620,0.29,0.34,-0.27,0.52
10.630,0.28,0.16,0.19,0.38
10.640,0.12,-0.10,-0.41,0.44
10.650,-0.40,-0.38,0.23,0.60
10.660,-0.04,0.08,-0.21,0.23
10.670,-0.33,0.59,0.81,1.05
10.680,-0.49,0.48,-0.82,1.07
10.691,0.10,-0.24,0.01,0.25
10.701,0.46,-0.44,0.09,0.64
10.711,0.30,-0.45,-0.35,0.64
10.721,0.11,-0.21,0.05,0.25
10.731,0.48,-0.05,-0.33,0.59
10.741,0.21,0.12,0.90,0.93
10.751,0.44,0.22,-0.80,0.94
10.761,0.32,0.22,0.10,0.40
10.771,0.38,-0.02,0.11,0.39
10.781,-0.42,-0.30,-0.42,0.66
10.792,-0.64,0.27,0.51,0.86
10.801,0.22,0.55,0.21,0.63
10.812,-0.54,0.35,-0.22,0.68
10.822,0.16,-0.06,-0.45,0.48
10.832,0.24,-0.46,0.29,0.60
10.842,0.23,-0.61,-0.20,0.68
10.852,0.28,-0.06,-0.48,0.56
10.862,0.37,-0.08,0.62,0.73
10.872,0.39,0.09,-0.56,0.69
10.882,0.38,0.24,0.13,0.46
10.892,0.30,0.29,0.07,0.43
10.902,0.24,0.07,-0.36,0.44
10.912,-0.19,-0.32,0.35,0.51
10.923,-0.52,-0.08,0.10,0.53
10.933,-0.47,0.43,-0.31,0.71
10.943,0.04,0.60,0.23,0.64
10.953,0.08,0.08,-0.14,0.18
10.963,0.55,-0.79,-0.55,1.11
10.973,-0.01,-0.53,0.47,0.71
10.983,0.14,-0.13,-0.48,0.52
10.993,0.18,0.08,0.01,0.20
11.003,0.47,0.24,0.37,0.64
11.013,0.68,0.21,-0.23,0.75
11.023,0.16,0.22,-0.11,0.29
11.034,0.22,-0.22,0.04,0.31
11.043,-0.12,-0.33,0.02,0.35
11.054,-0.72,0.13,0.44,0.85
11.064,-0.18,0.59,-0.39,0.73
11.074,-0.26,0.35,0.19,0.47
11.084,0.32,0.05,-0.37,0.49
11.094,0.35,-0.64,0.09,0.73
11.104,0.14,-0.50,-0.59,0.79
11.114,0.34,-0.45,0.24,0.61
11.124,0.17,0.33,-0.35,0.50
11.134,0.47,0.46,0.42,0.78
11.144,0.58,0.11,-0.40,0.71
11.155,0.09,0.05,-0.06,0.12
11.165,0.36,-0.22,0.02,0.42
11.175,-0.41,-0.18,0.16,0.48
11.185,-0.69,0.25,0.14,0.75
11.195,-0.47,0.54,-0.04,0.72
11.205,0.33,0.34,-0.70,0.84
11.215,0.39,-0.43,0.79,0.98
11.225,0.30,-0.28,-0.99,1.08
11.235,0.13,-0.35,0.10,0.38
11.245,0.04,-0.07,-0.01,0.08
11.255,0.45,0.06,-0.23,0.51
11.265,0.52,0.30,0.41,0.72
11.276,0.44,0.16,-0.45,0.65
11.286,-0.17,0.11,-0.11,0.23
11.296,0.21,-0.54,0.22,0.62
11.306,-0.58,-0.07,0.12,0.60
11.316,0.03,0.27,0.13,0.30
11.326,-0.88,0.71,-0.16,1.14
11.336,0.22,0.42,-0.31,0.57
11.346,-0.08,-0.24,0.29,0.38
11.356,0.73,-0.31,-0.61,1.00
11.366,0.26,-0.62,0.43,0.79
11.376,0.24,-0.29,-0.70,0.79
11.386,0.62,0.03,0.35,0.71
11.396,0.29,0.47,0.13,0.57
11.407,0.25,0.23,-0.42,0.54
11.417,0.21,0.07,-0.16,0.27
11.427,-0.28,-0.37,0.57,0.73
11.437,-0.13,0.04,-0.35,0.38
11.447,-0.34,0.54,0.17,0.66
11.457,-0.13,0.37,0.20,0.44
11.467,-0.08,-0.10,-0.36,0.38
11.477,0.31,-0.36,-0.39,0.62
11.487,0.28,-0.30,0.19,0.45
11.497,0.09,-0.24,-0.00,0.25
11.508,0.35,-0.18,-0.55,0.68
11.517,0.28,0.25,0.57,0.68
11.528,0.75,0.36,-0.29,0.88
11.538,0.28,0.19,-0.06,0.34
11.548,0.04,-0.29,0.09,0.31
11.558,-0.13,-0.21,-0.15,0.28
11.568,-0.62,0.26,0.47,0.82
11.578,-0.35,0.82,-0.59,1.07
11.588,0.00,0.14,0.66,0.68
11.598,0.23,-0.42,-1.11,1.21
11.608,0.36,-0.41,0.04,0.55
11.618,0.41,-0.30,0.93,1.05
11.628,0.08,-0.11,-1.32,1.33
11.639,0.31,-0.21,0.32,0.49
11.649,0.34,0.32,0.38,0.61
11.659,0.13,0.43,-0.36,0.58
11.669,0.52,0.14,-0.16,0.57
11.679,0.01,-0.29,0.71,0.77
11.689,-0.12,-0.25,-0.59,0.65
11.699,-0.65,0.34,0.58,0.93
11.709,-0.39,0.71,0.00,0.81
11.719,0.26,0.11,-0.47,0.55
11.729,0.38,-0.63,0.19,0.76
11.739,0.18,-0.35,-0.48,0.62
11.750,0.07,-0.40,0.19,0.45
11.760,0.17,-0.10,-0.37,0.42
11.770,0.13,0.21,-0.10,0.27
11.780,0.67,0.26,0.27,0.76
11.790,0.54,0.15,-0.23,0.60
11.800,0.10,0.20,-0.13,0.25
11.810,0.08,-0.23,0.19,0.31
11.820,-0.15,-0.24,-0.19,0.34
11.830,-0.94,0.57,0.59,1.25
11.840,-0.23,0.58,-0.92,1.11
11.851,0.67,-0.01,0.20,0.70
11.861,-0.06,-0.28,0.84,0.89
11.871,0.40,-0.67,-1.60,1.78
11.881,-0.03,-0.38,0.65,0.76
11.891,0.33,0.26,-0.16,0.45
11.901,0.25,0.04,-0.20,0.32
11.911,0.49,0.22,0.32,0.62
11.921,0.68,0.19,-0.19,0.73
11.931,-0.20,0.27,-0.21,0.40
11.941,-0.23,-0.09,0.15,0.29
11.951,-0.21,-0.27,0.02,0.34
11.961,-0.34,0.18,0.02,0.38
11.971,0.12,0.35,0.31,0.49
11.982,0.20,0.18,-0.59,0.65
11.991,0.08,-0.54,0.29,0.61
12.002,0.50,-0.41,-0.74,0.98
12.012,-0.16,-0.20,0.88,0.92
12.022,0.44,0.00,-1.01,1.10
12.032,0.25,0.16,0.44,0.53
12.042,0.47,0.27,0.35,0.64
12.052,0.27,0.28,-0.84,0.93
12.062,-0.23,0.22,0.36,0.48
12.072,0.23,-0.21,-0.02,0.31
12.082,-0.40,-0.23,0.34,0.57
12.092,-0.09,0.24,-0.37,0.45
12.103,-0.34,0.42,0.15,0.56
12.112,0.28,0.00,-0.08,0.29
12.123,0.28,-0.34,-0.66,0.80
12.133,0.18,-0.49,0.38,0.65
12.143,0.21,-0.36,-0.24,0.48
12.153,0.20,0.08,-0.32,0.38
12.163,0.36,0.48,0.10,0.61
12.173,0.70,0.17,0.20,0.75
12.183,0.03,0.33,-0.65,0.73
12.193,-0.19,-0.12,0.87,0.90
12.203,-0.05,-0.01,-1.17,1.17
12.213,-0.24,-0.09,1.02,1.06
12.224,-0.09,0.35,-0.17,0.40
12.234,-0.22,0.36,-0.43,0.61
12.244,0.41,-0.28,0.31,0.58
12.254,0.13,-0.15,-0.81,0.83
12.264,0.05,-0.65,0.73,0.98
12.274,0.19,-0.25,-0.55,0.64
12.284,0.40,-0.04,-0.39,0.56
12.294,0.15,0.43,0.59,0.74
12.304,0.92,0.40,-1.02,1.43
12.314,0.09,0.08,0.34,0.36
12.324,0.09,0.07,0.41,0.43
12.335,-0.59,0.03,-0.64,0.87
12.345,0.07,-0.33,0.18,0.39
12.355,-0.43,0.33,0.38,0.66
12.365,0.13,0.28,-0.42,0.52
12.375,0.03,-0.05,-0.36,0.37
12.385,0.29,-0.14,0.03,0.32
12.395,0.20,-0.37,-0.07,0.43
12.405,0.03,-0.55,-0.05,0.56
12.415,0.30,-0.08,-0.47,0.57
12.425,0.64,0.51,-0.14,0.83
12.435,0.46,0.58,-0.26,0.78
12.445,-0.01,0.15,0.33,0.37
12.455,0.47,-0.10,-0.49,0.68
12.466,-0.71,-0.03,0.28,0.76
12.476,-0.25,-0.16,0.22,0.36
12.486,-0.08,0.28,-0.39,0.49
12.496,0.27,-0.01,0.58,0.64
12.506,0.02,-0.05,-0.70,0.70
12.516,0.22,-0.33,-0.02,0.40
12.526,-0.10,-0.11,0.04,0.15
12.536,0.10,-0.35,0.09,0.37
12.546,0.30,-0.25,-0.46,0.61
12.556,0.79,0.34,-0.36,0.93
12.566,0.64,0.31,0.20,0.74
12.577,0.13,0.42,0.13,0.46
12.587,-0.39,-0.04,0.03,0.40
12.597,-0.31,-0.09,-0.70,0.77
12.607,0.13,0.06,0.55,0.57
12.617,-0.36,0.35,0.48,0.69
12.627,0.17,0.05,-1.28,1.29
12.637,0.12,-0.25,0.53,0.60
12.647,0.09,-0.15,-0.00,0.18
12.657,-0.01,-0.31,-0.16,0.35
12.667,-0.03,-0.25,-0.18,0.31
12.677,0.54,-0.48,-0.06,0.73
12.687,0.42,0.18,-0.36,0.58
12.697,0.66,0.62,-0.07,0.90
12.708,0.44,0.66,-0.68,1.04
12.718,-0.08,-0.68,1.15,1.34
12.728,-0.54,0.34,-1.02,1.20
12.738,-0.31,-0.26,1.23,1.30
12.748,-0.02,0.22,-0.91,0.94
12.758,-0.28,0.41,0.31,0.59
12.768,0.68,-0.17,0.01,0.70
12.778,-0.26,-0.25,-0.59,0.69
12.788,0.38,-0.38,0.04,0.54
12.798,-0.29,-0.27,1.14,1.21
12.808,0.48,-0.36,-2.33,2.40
12.819,0.30,-0.09,1.62,1.65
12.829,0.84,0.57,-0.83,1.31
12.839,0.34,0.22,-0.15,0.43
12.849,0.23,0.28,0.06,0.36
12.859,-0.92,0.33,0.49,1.09
12.869,-0.09,0.43,-1.08,1.16
12.879,-0.00,-0.26,1.55,1.57
12.889,-0.09,0.04,-0.62,0.63
12.899,0.02,-0.26,-0.31,0.41
12.909,0.65,-0.49,-0.57,0.99
12.920,-0.37,-0.15,0.55,0.68
12.930,0.36,0.04,-0.32,0.49
12.940,0.29,-0.31,0.13,0.44
12.950,0.23,-0.10,-0.38,0.46
12.960,0.54,0.36,-0.01,0.65
12.970,0.75,0.30,-0.64,1.04
12.980,-0.10,0.04,0.10,0.14
12.990,-0.27,0.22,0.16,0.39
13.000,-0.52,0.38,0.19,0.67
13.010,-0.52,0.01,0.72,0.88
13.020,0.13,-0.11,-0.89,0.90
13.030,0.21,-0.09,0.04,0.23
13.040,0.35,-0.36,0.21,0.54
13.051,0.27,-0.36,-0.68,0.81
13.061,0.21,-0.37,0.29,0.51
13.071,-0.37,0.15,0.22,0.46
13.081,0.88,0.28,-1.07,1.42
13.091,0.54,-0.08,1.17,1.29
13.101,0.33,0.45,-1.17,1.30
13.111,0.04,0.14,0.74,0.75
13.121,-0.21,-0.13,-0.65,0.70
13.131,-0.45,-0.39,0.58,0.83
13.141,-0.14,0.23,-0.07,0.28
13.151,-0.30,0.56,-0.07,0.63
13.161,0.46,-0.02,0.03,0.46
13.172,-0.11,-0.15,-0.48,0.52
13.182,0.50,-0.61,0.21,0.82
13.192,-0.09,-0.10,-0.44,0.46
13.202,0.41,-0.09,-0.03,0.43
13.212,0.65,0.28,0.01,0.71
13.222,0.68,0.13,0.19,0.72
13.232,-0.38,0.21,0.13,0.45
13.242,-0.00,0.01,-1.07,1.07
13.252,0.17,-0.19,0.40,0.47
13.262,-0.39,0.04,0.57,0.70
13.272,-0.12,0.32,-0.24,0.42
13.282,-0.25,0.23,0.10,0.35
13.293,0.16,0.07,-0.31,0.36
13.303,0.21,-0.35,-0.09,0.41
13.313,0.26,-0.52,-0.27,0.63
13.323,0.17,-0.11,-0.38,0.43
13.333,0.62,0.08,0.33,0.70
13.343,0.29,0.38,0.09,0.49
13.353,0.40,-0.00,-0.36,0.54
13.363,-0.07,0.07,-0.28,0.29
13.373,0.04,-0.19,0.17,0.26
13.383,0.13,-0.12,-0.49,0.52
13.394,-0.64,0.05,1.50,1.63
13.403,0.04,0.69,-2.05,2.17
13.414,-0.48,0.16,1.12,1.23
13.424,0.53,0.11,-0.05,0.54
13.434,0.04,-0.44,-0.70,0.82
13.444,0.41,-0.71,0.33,0.88
13.454,0.53,-0.13,-0.35,0.64
13.464,0.16,-0.08,0.35,0.39
13.474,0.69,0.47,-0.38,0.92
13.484,0.09,0.34,0.47,0.59
13.494,-0.16,0.20,-0.52,0.58
13.504,0.30,-0.53,-0.07,0.61
13.514,0.01,-0.27,0.04,0.27
13.525,-0.57,0.40,0.72,1.00
13.535,-0.38,0.62,-0.59,0.94
13.545,-0.07,0.16,0.05,0.18
13.555,-0.00,-0.26,-0.01,0.26
13.565,0.26,-0.07,-0.55,0.61
13.575,0.62,-0.69,0.41,1.02
13.585,0.39,-0.47,-0.51,0.80
13.595,0.33,0.18,0.40,0.55
13.605,0.49,0.36,-0.02,0.61
13.615,0.29,0.46,-0.61,0.82
13.625,0.22,-0.23,0.44,0.55
13.636,-0.32,-0.31,-0.33,0.55
13.646,-0.29,-0.04,0.48,0.56
13.656,-0.46,0.67,-0.02,0.81
13.666,-0.06,0.57,-0.28,0.64
13.676,-0.12,-0.15,0.34,0.39
13.686,0.53,-0.20,-0.88,1.05
13.696,-0.13,-0.59,0.70,0.92
13.706,0.39,-0.07,-1.28,1.34
13.716,0.50,-0.59,1.82,1.98
13.726,0.38,0.11,-1.47,1.52
13.736,0.50,0.16,0.39,0.66
13.747,0.63,0.59,-0.06,0.86
13.757,-0.61,0.02,-0.03,0.61
13.767,0.25,-0.50,-0.52,0.76
13.777,-0.51,0.04,0.77,0.92
13.787,-0.36,0.72,-0.45,0.92
13.797,-0.11,0.43,0.01,0.45
13.807,0.19,-0.24,-0.13,0.33
13.817,0.33,-0.52,-0.46,0.77
13.827,0.00,-0.36,0.32,0.48
13.837,0.19,0.04,-0.62,0.65
13.847,0.31,-0.07,0.77,0.83
13.857,0.75,0.20,-0.46,0.90
13.868,0.23,-0.00,0.09,0.25
13.878,0.51,0.20,-0.32,0.64
13.888,-0.00,-0.05,0.04,0.06
13.898,-0.41,-0.18,0.10,0.46
13.908,-0.60,0.28,0.22,0.70
13.918,-0.20,0.54,-0.01,0.58
13.928,-0.01,0.29,-0.39,0.49
13.938,0.14,-0.30,0.07,0.34
13.948,0.52,-0.50,-0.26,0.77
13.958,-0.12,-0.57,-0.07,0.58
13.968,0.29,0.20,-0.41,0.54
13.978,0.33,0.26,0.68,0.80
13.988,0.56,-0.07,-0.41,0.70
13.999,0.65,0.11,-0.27,0.71
14.009,0.27,0.22,0.45,0.57
14.019,-0.13,-0.18,-0.44,0.49
14.029,-0.52,-0.19,0.11,0.56
14.039,-0.13,0.33,0.44,0.56
14.049,-0.53,0.50,-0.36,0.82
14.059,0.10,0.34,-0.16,0.39
14.069,0.41,-0.35,0.17,0.57
14.079,0.03,-0.64,-0.31,0.71
14.089,0.34,-0.50,-0.40,0.72
14.099,0.25,-0.25,0.23,0.42
14.109,0.31,0.40,-0.02,0.51
14.120,0.28,0.43,0.20,0.55
14.130,0.84,-0.16,-0.28,0.90
14.140,0.13,0.10,-0.13,0.21
14.150,-0.10,-0.07,0.06,0.14
14.160,-0.37,-0.15,-0.16,0.43
14.170,-0.81,0.32,0.42,0.97
14.180,-0.08,0.50,-0.15,0.53
14.190,0.37,0.18,-0.21,0.46
14.200,0.26,-0.40,-0.04,0.48
14.210,0.20,-0.56,-0.32,0.68
14.221,0.13,-0.47,-0.32,0.59
14.231,0.43,0.18,0.16,0.49
14.241,0.35,0.46,0.54,0.79
14.251,0.71,0.03,-0.76,1.04
14.261,-0.03,0.00,0.43,0.43
14.271,0.36,-0.07,-0.25,0.44
14.281,-0.14,-0.06,0.02,0.16
14.291,-0.47,-0.00,0.42,0.63
14.301,-0.06,0.20,-0.28,0.35
14.311,-0.33,0.26,0.17,0.45
14.321,0.06,0.28,-0.37,0.47
14.331,0.04,-0.03,0.11,0.12
14.342,0.18,-0.60,-0.24,0.68
14.352,0.34,-0.36,-0.38,0.63
14.362,0.27,-0.42,0.56,0.75
14.372,0.44,0.43,-0.62,0.88
14.382,0.47,0.35,0.45,0.74
14.392,0.56,0.05,-0.67,0.87
14.402,0.10,0.01,0.23,0.25
14.412,-0.21,-0.10,-0.01,0.24
14.422,-0.20,-0.05,-0.12,0.24
14.432,-0.60,0.24,0.96,1.15
14.442,-0.05,0.39,-1.15,1.22
14.452,-0.24,-0.08,0.21,0.33
14.463,0.62,0.23,-0.06,0.66
14.473,0.02,-0.43,-0.25,0.50
14.483,0.37,-0.68,-0.39,0.87
14.493,0.26,-0.01,0.51,0.57
14.503,0.46,0.09,-0.09,0.47
14.513,0.32,0.34,-0.48,0.67
14.523,0.40,0.39,0.39,0.68
14.533,0.17,-0.18,-0.08,0.26
14.543,-0.13,-0.27,-0.57,0.64
14.553,-0.48,0.16,0.75,0.90
14.564,-0.17,0.63,0.27,0.71
14.573,-0.39,-0.04,-0.43,0.59
14.584,0.38,-0.17,-0.42,0.59
14.594,0.19,-0.25,0.65,0.72
14.604,0.07,-0.21,-0.85,0.87
14.614,0.22,-0.19,-0.10,0.30
14.624,0.53,-0.41,0.24,0.72
14.634,0.14,0.21,-0.27,0.37
14.644,0.54,0.32,0.02,0.63
14.654,0.13,0.38,0.08,0.41
14.664,0.39,-0.26,-0.38,0.60
14.674,-0.03,-0.34,0.10,0.35
14.684,-0.29,0.01,0.15,0.32
14.694,-0.47,0.65,0.27,0.85
14.705,-0.15,0.58,-0.41,0.72
14.715,-0.10,-0.04,0.26,0.29
14.725,0.35,-0.52,-0.50,0.80
14.735,0.30,-0.50,-0.10,0.59
14.745,0.13,-0.13,0.20,0.27
14.755,0.24,-0.22,-0.25,0.41
14.765,0.45,-0.04,-0.17,0.48
14.775,0.39,0.14,0.33,0.54
14.785,0.38,0.45,-0.58,0.83
14.795,0.39,0.02,0.14,0.41
14.805,-0.11,-0.22,-0.34,0.42
14.816,-0.54,-0.03,0.55,0.77
14.826,-0.26,0.44,-0.14,0.53
14.836,-0.25,0.70,-0.22,0.78
14.846,0.06,-0.16,0.27,0.32
14.856,0.44,-0.54,-0.81,1.07
14.866,0.10,-0.55,0.25,0.61
14.876,0.38,-0.27,-0.21,0.51
14.886,-0.24,0.05,-0.14,0.28
14.897,0.67,-0.06,-0.04,0.67
14.906,0.37,0.19,0.06,0.42
14.916,0.37,0.34,-0.35,0.61
14.927,0.22,0.31,0.22,0.44
14.937,0.08,-0.17,-0.18,0.26
14.947,-0.31,-0.17,-0.00,0.36
14.957,-0.59,0.33,0.48,0.83
14.967,-0.13,0.62,-0.63,0.89
14.977,-0.06,-0.03,0.40,0.41
14.987,0.48,-0.31,-0.38,0.68
14.997,0.46,-0.73,-0.27,0.90
15.007,0.00,-0.39,0.12,0.41
15.017,0.37,-0.01,-0.68,0.78
15.027,0.01,0.05,0.70,0.70
15.037,0.80,0.22,-0.36,0.90
15.048,0.11,0.26,0.24,0.37
15.057,0.35,0.22,-0.67,0.79
15.068,-0.37,0.05,0.52,0.64
15.078,-0.06,-0.34,0.14,0.37
15.088,-0.42,0.25,-0.26,0.55
15.098,-0.09,0.35,0.34,0.49
15.108,0.19,0.12,-0.33,0.40
15.118,0.24,-0.37,-0.42,0.61
15.128,0.25,-0.52,0.29,0.65
15.138,0.16,-0.38,-0.47,0.63
15.148,-0.06,-0.08,-0.09,0.14
15.158,0.47,0.23,0.12,0.54
15.169,0.63,0.17,-0.06,0.66
15.179,0.49,0.17,-0.48,0.70
15.189,-0.03,0.19,0.19,0.27
15.199,0.06,-0.16,0.13,0.21
15.209,-0.44,-0.00,0.02,0.44
15.219,-0.38,0.26,0.07,0.47
15.229,-0.13,0.48,-0.52,0.71
15.239,0.44,-0.12,0.67,0.81
15.249,-0.37,-0.14,-0.71,0.82
15.259,0.58,-0.67,-0.36,0.95
15.269,-0.03,-0.19,0.15,0.24
15.279,0.61,-0.06,-0.32,0.70
15.290,0.36,0.24,0.13,0.45
15.300,0.53,0.18,-0.07,0.56
15.310,0.14,0.24,-0.31,0.42
15.320,0.32,-0.04,-0.10,0.34
15.330,-0.57,0.09,0.14,0.60
15.340,-0.17,-0.09,0.01,0.19
15.350,-0.22,0.15,0.29,0.39
15.360,-0.26,0.51,-0.02,0.57
15.370,0.20,-0.18,-0.45,0.53
15.380,0.35,-0.33,-0.39,0.62
15.390,0.31,-0.44,0.45,0.70
15.400,0.01,-0.17,-0.51,0.53
15.411,0.14,-0.01,-0.05,0.15
15.420,0.36,0.25,0.37,0.57
15.431,0.71,0.26,-0.33,0.83
15.441,0.20,0.03,0.01,0.20
15.451,0.11,-0.10,-0.25,0.29
15.461,-0.45,0.01,0.42,0.61
15.471,-0.18,0.11,0.21,0.30
15.481,-0.21,0.16,-0.29,0.40
15.491,0.06,0.21,-0.18,0.29
15.501,0.24,-0.06,0.28,0.37
15.512,0.02,-0.21,-0.54,0.58
15.521,0.20,-0.40,-0.14,0.47
15.532,0.45,-0.31,-0.09,0.55
15.542,0.08,-0.08,0.38,0.39
15.552,0.65,0.42,-1.00,1.26
15.562,0.42,0.28,0.81,0.95
15.572,0.34,0.20,-0.45,0.60
15.582,-0.22,-0.25,-0.10,0.35
15.592,-0.43,-0.12,0.28,0.53
15.602,-0.29,0.32,0.27,0.50
15.612,-0.12,0.33,-0.40,0.53
15.622,0.21,-0.04,0.09,0.23
15.633,0.18,-0.27,-0.01,0.33
15.642,0.32,-0.27,-0.52,0.67
15.653,-0.03,-0.29,0.57,0.64
15.663,0.08,-0.23,-0.70,0.74
15.673,0.38,-0.03,-0.12,0.40
15.683,0.56,0.63,-0.05,0.85
15.693,0.78,0.32,-0.41,0.93
15.703,0.07,-0.21,0.69,0.72
15.713,-0.43,0.17,-0.43,0.63
15.723,-0.20,-0.35,0.61,0.73
15.733,-0.36,0.26,-0.28,0.52
15.743,-0.32,0.42,0.00,0.53
15.753,0.47,-0.09,-0.32,0.57
15.763,0.01,-0.46,0.41,0.62
15.774,0.18,-0.23,-0.59,0.66
15.784,0.39,-0.24,0.43,0.63
15.794,-0.16,-0.20,-0.27,0.37
15.804,0.58,0.02,-0.95,1.11
15.814,0.79,0.42,0.07,0.90
15.824,0.45,0.71,0.12,0.85
15.834,0.22,-0.08,-0.55,0.60
15.844,-0.85,-0.02,0.72,1.12
15.854,-0.10,-0.09,0.39,0.42
15.864,-0.54,0.10,-0.63,0.84
15.875,0.16,0.25,0.43,0.52
15.885,0.45,-0.40,0.11,0.61
15.895,-0.11,-0.37,-0.62,0.73
15.905,0.27,-0.19,0.06,0.33
15.915,0.09,-0.04,0.15,0.17
15.925,0.17,-0.14,-0.65,0.69
15.935,0.48,0.28,-0.25,0.61
15.945,0.72,0.20,0.26,0.79
15.955,0.29,0.27,-0.56,0.69
15.965,0.18,-0.08,0.60,0.63
15.975,-0.32,0.49,-0.49,0.76
15.985,-0.64,-0.04,0.65,0.91
15.995,-0.11,0.08,-0.45,0.47
16.005,-0.35,0.04,0.44,0.57
16.016,0.43,-0.26,-0.51,0.72
16.026,0.21,-0.46,0.03,0.51
16.036,0.31,-0.32,0.05,0.45
16.046,0.06,0.02,-0.39,0.40
16.056,0.37,-0.04,-0.17,0.41
16.066,0.30,0.35,-0.08,0.47
16.076,0.59,0.47,-0.41,0.86
16.086,0.48,0.19,-0.01,0.51
16.096,0.05,0.09,0.16,0.19
16.106,-0.47,-0.38,0.97,1.14
16.116,-0.11,-0.21,-0.88,0.92
16.127,-0.70,0.15,0.33,0.79
16.137,0.31,0.49,-0.15,0.60
16.147,0.07,-0.09,0.39,0.41
16.157,0.39,-0.45,-0.50,0.78
16.167,0.16,-0.55,-0.14,0.59
16.177,-0.14,-0.18,-0.10,0.25
16.187,0.36,0.18,-0.34,0.53
16.197,0.81,0.24,-0.14,0.86
16.207,0.27,0.61,-0.46,0.82
16.217,0.63,0.10,-0.08,0.65
16.227,-0.59,0.03,0.71,0.92
16.238,-0.01,-0.38,-0.16,0.41
16.248,-0.35,-0.32,0.16,0.50
16.258,-0.27,0.38,-0.46,0.65
16.268,-0.02,0.39,0.63,0.74
16.278,0.40,0.06,-0.70,0.81
16.288,0.15,-0.70,0.61,0.95
16.298,-0.07,-0.32,-0.71,0.78
16.308,0.31,-0.22,-0.18,0.42
16.318,0.50,0.13,0.35,0.62
16.328,0.58,0.66,-0.96,1.30
16.339,0.64,0.32,0.07,0.72
16.349,-0.00,-0.18,0.82,0.84
16.359,-0.41,-0.09,-0.83,0.93
16.369,-0.05,-0.23,0.46,0.52
16.379,-0.31,0.07,0.42,0.52
16.389,-0.13,0.32,-0.47,0.59
16.399,-0.08,0.18,0.20,0.28
16.409,0.43,-0.17,-0.27,0.53
16.419,-0.09,-0.28,-0.24,0.38
16.429,0.41,-0.66,0.45,0.89
16.439,0.08,-0.16,-0.25,0.31
16.449,0.61,0.36,-0.78,1.05
16.460,1.69,0.36,1.22,2.12
16.469,0.08,0.73,-2.10,2.22
16.480,-0.48,-1.30,1.53,2.06
16.490,-1.16,0.61,-0.85,1.56
16.500,-0.53,0.54,0.72,1.04
16.510,0.09,0.63,-0.10,0.64
16.520,0.31,-0.21,0.09,0.39
16.530,0.28,-0.55,-0.54,0.82
16.540,0.29,-0.38,-0.18,0.51
16.550,0.05,-0.12,0.56,0.57
16.560,-0.02,-0.28,-0.52,0.59
16.570,0.28,-0.45,0.16,0.56
16.581,0.41,0.25,-0.17,0.51
16.591,0.61,0.64,-0.53,1.03
16.601,0.40,0.26,0.50,0.69
16.611,0.05,0.26,-0.38,0.46
16.621,-0.24,-0.14,0.05,0.28
16.631,0.01,-0.34,-0.21,0.40
16.641,-0.30,0.03,0.62,0.68
16.651,-0.09,0.44,-0.02,0.45
16.661,-0.02,0.02,-0.32,0.32
16.671,0.04,-0.18,0.05,0.19
16.681,0.25,-0.24,-0.29,0.45
16.691,0.16,-0.21,0.16,0.31
16.702,0.42,-0.41,-0.15,0.61
16.712,0.46,0.03,-0.30,0.55
16.722,0.21,0.30,0.58,0.69
16.732,0.40,0.45,-0.44,0.74
16.742,0.26,0.09,0.03,0.28
16.752,-0.10,-0.20,0.01,0.22
16.762,0.07,-0.29,-0.45,0.54
16.772,-0.39,0.14,0.95,1.04
16.782,-0.22,0.66,-0.58,0.90
16.792,-0.05,-0.00,0.46,0.46
16.802,0.09,-0.25,-0.83,0.88
16.812,0.16,-0.29,0.31,0.46
16.822,0.38,-0.13,-0.20,0.46
16.833,0.21,-0.25,-0.38,0.50
16.843,0.12,-0.01,0.23,0.26
16.853,0.91,0.03,-0.20,0.93
16.863,0.23,0.39,0.08,0.46
16.873,0.09,0.30,-0.33,0.46
16.883,-0.01,-0.32,-0.04,0.32
16.893,-0.36,0.01,0.19,0.40
16.903,-0.33,0.20,0.16,0.42
16.913,-0.05,0.41,-0.15,0.44
16.923,0.02,0.13,0.00,0.13
16.933,0.37,-0.39,-0.45,0.70
16.944,-0.18,-0.49,0.20,0.56
16.954,0.54,-0.19,-0.35,0.68
16.964,-0.11,-0.10,0.52,0.54
16.974,0.47,0.04,-0.83,0.96
16.984,0.50,0.26,0.64,0.85
16.994,0.59,0.26,-0.23,0.69
17.004,0.09,0.27,-0.51,0.59
17.014,-0.09,-0.22,0.48,0.53
17.024,-0.12,-0.36,-0.56,0.68
17.034,-0.55,0.18,1.25,1.38
17.044,-0.18,0.63,-1.07,1.25
17.054,-0.09,0.33,0.08,0.35
17.065,0.19,-0.28,0.29,0.45
17.075,0.54,-0.58,-0.53,0.95
17.085,0.00,-0.40,0.39,0.56
17.095,0.28,-0.06,-0.70,0.76
17.105,0.01,0.05,0.26,0.26
17.115,0.84,-0.04,0.45,0.95
17.125,0.38,0.33,-0.52,0.73
17.135,0.37,-0.07,0.19,0.43
17.145,-0.10,0.13,-0.07,0.18
17.155,-0.23,-0.35,-0.00,0.42
17.165,-0.26,0.12,0.40,0.49
17.176,-0.34,0.60,-0.20,0.72
17.186,-0.29,0.42,-0.30,0.59
17.196,0.44,-0.23,0.24,0.55
17.206,0.13,-0.57,-0.31,0.66
17.216,0.23,-0.28,-0.23,0.43
17.226,0.54,-0.42,0.10,0.68
17.236,-0.28,0.17,-0.59,0.68
17.246,0.77,0.02,0.58,0.96
17.256,0.64,0.09,-0.29,0.71
17.266,0.27,0.19,-0.07,0.34
17.276,0.08,0.01,-0.01,0.08
17.286,-0.42,-0.16,-0.04,0.45
17.297,-0.54,0.14,0.39,0.68
17.307,0.02,0.58,-0.33,0.67
17.317,-0.28,0.11,-0.02,0.30
17.327,0.25,-0.02,-0.49,0.55
17.337,0.56,-0.68,-0.11,0.89
17.347,0.01,-0.33,0.20,0.39
17.357,0.39,-0.12,-0.23,0.46
17.367,0.16,-0.00,-0.14,0.21
17.377,0.45,0.17,0.02,0.49
17.387,0.54,0.34,0.09,0.64
17.397,0.39,0.00,-0.27,0.48
17.408,-0.30,-0.23,-0.11,0.39
17.418,-0.30,0.21,0.27,0.45
17.428,-0.46,0.56,0.38,0.82
17.438,-0.37,0.52,-0.51,0.81
17.448,0.22,-0.08,0.13,0.27
17.458,0.36,-0.54,-0.01,0.64
17.468,0.35,-0.58,-0.63,0.92
17.478,0.30,-0.34,0.16,0.48
17.488,0.21,0.01,-0.03,0.21
17.498,0.25,0.26,0.11,0.37
17.508,0.54,0.23,-0.02,0.59
17.518,0.22,-0.06,-0.09,0.25
17.529,0.16,0.09,0.09,0.20
17.539,0.10,-0.33,-0.30,0.45
17.549,-0.31,0.11,0.19,0.38
17.559,-0.55,0.54,0.37,0.85
17.569,-0.00,0.31,-0.57,0.65
17.579,0.14,-0.15,0.07,0.22
17.589,0.10,-0.21,-0.63,0.67
17.599,0.75,-0.57,0.14,0.96
17.609,-0.04,-0.22,-0.05,0.23
17.619,0.16,0.02,-0.49,0.52
17.629,0.57,-0.04,0.31,0.65
17.639,0.22,0.49,0.14,0.55
17.649,0.66,-0.16,-0.34,0.76
17.660,-0.37,0.29,-0.26,0.53
17.670,0.09,0.14,0.00,0.16
17.680,-0.16,-0.23,1.14,1.17
17.690,-0.35,0.18,-1.50,1.56
17.700,-0.29,0.25,0.98,1.05
17.710,0.33,-0.13,-0.07,0.36
17.720,0.19,-0.31,-0.99,1.06
17.730,0.36,-0.19,0.71,0.82
17.740,-0.01,0.02,-0.60,0.60
17.751,0.11,-0.24,-0.09,0.28
17.761,0.72,0.14,0.09,0.74
17.771,0.32,0.40,0.42,0.66
17.781,0.17,0.34,-0.89,0.97
17.791,0.14,-0.41,0.38,0.58
17.801,-0.19,-0.10,-0.20,0.30
17.811,-0.51,0.16,0.27,0.60
17.821,-0.01,0.58,0.03,0.58
17.831,0.07,0.13,-0.02,0.15
17.841,-0.01,-0.24,-0.42,0.49
17.851,0.17,-0.43,-0.02,0.46
17.861,0.39,-0.21,-0.46,0.64
17.871,0.15,-0.15,0.19,0.28
17.881,0.51,-0.01,-0.28,0.59
17.892,0.19,0.26,0.39,0.50
17.902,0.57,0.27,-0.28,0.69
17.912,-0.05,0.26,-0.39,0.47
17.922,-0.01,-0.24,0.24,0.34
17.932,-0.05,-0.37,-0.11,0.38
17.942,-0.21,-0.05,-0.07,0.22
17.952,-0.36,0.60,0.29,0.76
17.962,0.30,0.08,-0.09,0.32
17.972,0.06,-0.38,-0.40,0.56
17.982,0.32,-0.33,-0.10,0.47
17.992,-0.07,-0.17,-0.04,0.19
18.003,0.49,-0.05,-0.28,0.57
18.013,0.07,0.10,0.27,0.30
18.023,0.34,0.25,-0.12,0.44
18.033,0.63,0.32,-0.25,0.74
18.043,0.02,0.42,0.49,0.65
18.053,-0.11,-0.30,-0.45,0.55
18.063,-0.30,-0.24,0.23,0.45
18.073,-0.27,0.35,0.43,0.62
18.083,0.07,0.32,-0.63,0.71
18.093,-0.23,-0.01,0.24,0.33
18.103,0.54,-0.33,-0.16,0.65
18.113,0.45,-0.61,-0.25,0.80
18.123,-0.05,-0.21,-0.10,0.24
18.134,0.04,0.15,-0.12,0.20
18.144,0.51,-0.01,0.16,0.53
18.154,0.49,0.30,-0.14,0.59
18.164,0.22,0.45,-0.37,0.63
18.174,0.16,-0.01,0.36,0.40
18.184,-0.15,-0.07,-0.41,0.44
18.194,-0.07,-0.53,0.53,0.76
18.204,-0.41,0.53,-0.44,0.80
18.214,0.03,0.34,0.29,0.44
18.224,0.19,0.09,-0.31,0.37
18.235,0.20,-0.43,-0.14,0.49
18.245,0.43,-0.42,-0.02,0.60
18.255,-0.05,-0.22,-0.19,0.29
18.265,0.00,-0.06,0.01,0.06
18.275,0.59,0.16,-0.03,0.61
18.285,0.62,0.48,-0.25,0.83
18.295,0.10,0.19,0.41,0.46
18.305,0.23,0.06,-0.58,0.63
18.315,-0.27,-0.04,0.59,0.65
18.325,-0.33,-0.29,0.18,0.47
18.336,-0.35,0.12,-0.49,0.61
18.346,-0.11,0.21,0.10,0.26
18.356,0.52,0.18,-0.45,0.71
18.366,0.16,-0.49,0.58,0.78
18.376,0.09,-0.58,-0.50,0.77
18.386,0.08,-0.33,-0.07,0.34
18.396,0.24,0.14,0.10,0.30
18.406,0.85,0.44,-0.66,1.16
18.416,0.38,0.44,-0.32,0.66
18.426,0.49,0.13,0.11,0.51
18.436,-0.40,-0.12,0.35,0.54
18.446,-0.04,0.01,-0.28,0.29
18.456,-0.42,-0.14,0.42,0.60
18.466,-0.08,0.12,-0.35,0.38
18.477,-0.21,0.06,0.25,0.33
18.487,1.14,-0.00,0.43,1.22
18.497,-0.80,0.07,-1.44,1.65
18.507,0.02,-0.90,1.27,1.55
18.517,0.04,-0.30,-0.52,0.60
18.527,0.25,0.19,-0.78,0.84
18.537,0.87,0.16,0.62,1.08
18.547,0.56,0.81,-0.67,1.19
18.557,0.57,0.17,-0.73,0.94
18.567,-0.27,-0.14,1.12,1.16
18.577,-0.25,0.07,-0.05,0.27
18.587,-0.33,-0.21,-0.07,0.40
18.598,-0.57,-0.00,0.17,0.60
18.608,0.30,0.23,0.03,0.38
18.618,0.27,-0.18,0.07,0.33
18.628,0.00,-0.20,0.01,0.20
18.638,0.47,-0.36,-0.83,1.01
18.648,-0.05,-0.37,0.56,0.67
18.658,0.22,-0.00,-0.55,0.60
18.668,0.66,0.49,-0.43,0.93
18.678,0.75,0.39,0.03,0.84
18.688,0.28,0.11,-0.29,0.42
18.698,0.28,-0.21,-0.18,0.39
18.709,-0.72,0.21,0.67,1.00
