time,ax,ay,az,atotal
0.000,0.17,-0.37,0.14,0.43
0.010,0.24,0.07,-0.41,0.48
0.020,0.08,-0.01,0.31,0.32
0.030,0.40,0.29,-0.23,0.55
0.040,0.21,0.22,0.03,0.30
0.050,-0.14,0.23,-0.33,0.42
0.061,-0.20,-0.09,0.10,0.24
0.071,-0.28,-0.12,0.20,0.37
0.081,-0.50,0.26,0.14,0.58
0.091,-0.17,0.47,-0.31,0.59
0.101,0.24,0.16,0.17,0.34
0.111,-0.18,-0.39,-0.39,0.57
0.121,-0.02,-0.62,-0.21,0.66
0.131,0.18,-0.29,-0.02,0.34
0.141,0.02,0.14,-0.10,0.17
0.151,0.41,0.14,0.08,0.44
0.162,0.22,0.22,-0.06,0.32
0.172,0.30,0.22,-0.09,0.38
0.182,-0.18,0.21,-0.14,0.31
0.192,-0.24,0.10,0.05,0.26
0.202,-0.22,-0.17,0.00,0.28
0.212,-0.52,0.13,0.34,0.63
0.222,-0.13,0.30,-0.19,0.37
0.232,-0.03,0.10,-0.27,0.29
0.242,-0.04,-0.21,-0.02,0.21
0.252,0.09,-0.31,-0.51,0.60
0.262,0.02,-0.47,0.40,0.62
0.272,0.15,0.08,-0.79,0.81
0.283,0.36,0.26,0.56,0.71
0.293,0.49,0.40,0.06,0.64
0.303,-0.00,0.24,-0.30,0.38
0.313,-0.08,0.02,-0.21,0.23
0.323,-0.36,0.09,0.07,0.37
0.333,-0.47,-0.02,0.51,0.70
0.343,-0.32,0.12,-0.30,0.46
0.353,-0.23,0.19,-0.03,0.30
0.363,0.42,-0.07,-0.12,0.44
0.373,-0.04,-0.17,-0.26,0.32
0.383,-0.08,-0.27,-0.13,0.31
0.393,-0.00,-0.28,0.01,0.28
0.403,0.28,-0.05,-0.31,0.42
0.414,0.20,0.37,0.34,0.54
0.424,0.58,0.40,-0.23,0.74
0.434,-0.10,0.09,-0.09,0.16
0.444,0.04,-0.04,-0.09,0.10
0.454,-0.45,-0.07,0.03,0.45
0.464,-0.42,0.11,0.48,0.65
0.474,-0.36,0.36,-0.17,0.54
0.484,-0.07,0.30,-0.35,0.46
0.494,0.17,-0.10,0.09,0.21
0.504,-0.01,-0.33,-0.17,0.37
0.514,0.21,-0.41,-0.29,0.54
0.525,-0.07,-0.31,0.31,0.44
0.535,0.40,0.02,-0.74,0.85
0.545,0.17,0.33,0.65,0.75
0.555,0.41,0.62,-0.26,0.79
0.565,0.05,0.02,-0.17,0.18
0.575,-0.49,0.11,-0.14,0.52
0.585,-0.14,-0.05,0.41,0.43
0.595,-0.39,0.18,0.04,0.42
0.605,-0.40,0.34,-0.29,0.60
0.615,0.20,-0.09,0.05,0.22
0.625,0.09,-0.38,-0.32,0.50
0.635,-0.09,-0.19,-0.09,0.23
0.646,0.08,-0.13,-0.22,0.27
0.655,0.14,-0.09,-0.01,0.17
0.666,0.27,-0.05,-0.04,0.28
0.676,0.24,0.29,-0.11,0.39
0.686,0.32,0.46,-0.03,0.56
0.696,-0.07,0.19,-0.18,0.27
0.706,-0.33,-0.02,-0.30,0.45
0.716,-0.18,-0.24,0.32,0.44
0.726,-0.39,0.34,0.13,0.54
0.736,-0.32,0.38,-0.12,0.51
0.746,-0.04,0.02,-0.27,0.27
0.756,0.27,-0.36,-0.05,0.46
0.767,0.12,-0.36,-0.18,0.42
0.777,-0.25,-0.27,-0.00,0.37
0.787,0.23,-0.20,-0.33,0.45
0.797,0.27,0.14,-0.09,0.32
0.807,0.58,0.31,0.19,0.69
0.817,0.09,0.34,-0.16,0.39
0.827,-0.20,0.34,-0.25,0.47
0.837,-0.25,-0.01,0.19,0.31
0.847,-0.55,-0.02,0.12,0.56
0.857,-0.09,0.21,0.02,0.23
0.867,-0.47,0.38,0.05,0.60
0.878,0.09,-0.07,-0.33,0.35
0.888,0.15,-0.55,-0.13,0.58
0.898,0.18,-0.36,-0.21,0.45
0.908,-0.04,-0.00,-0.43,0.43
0.918,-0.01,-0.06,0.07,0.10
0.928,0.58,0.15,-0.24,0.65
0.938,0.32,0.30,0.31,0.53
0.948,0.02,0.49,-0.56,0.74
0.958,-0.03,0.19,0.19,0.27
0.968,-0.34,-0.07,0.22,0.41
0.978,-0.40,-0.11,0.02,0.42
0.989,-0.42,0.38,-0.17,0.59
0.999,0.07,0.26,0.08,0.27
1.009,-0.10,-0.12,-0.15,0.21
1.019,0.05,-0.43,-0.36,0.56
1.029,0.10,-0.37,0.10,0.40
1.039,0.17,-0.13,-0.16,0.27
1.049,0.15,0.14,-0.43,0.48
1.059,0.30,0.11,0.51,0.60
1.069,0.33,0.21,-0.43,0.58
1.079,0.08,0.32,-0.24,0.40
1.089,-0.04,0.13,0.45,0.47
1.099,-0.43,-0.09,-0.45,0.63
1.110,-0.34,-0.09,0.44,0.56
1.120,-0.30,0.36,-0.09,0.48
1.130,-0.16,0.39,-0.35,0.55
1.140,0.14,0.01,0.13,0.19
1.150,0.21,-0.45,-0.26,0.56
1.160,-0.08,-0.46,-0.39,0.61
1.170,-0.11,-0.16,0.25,0.32
1.180,0.22,0.23,-0.59,0.67
1.190,0.46,0.02,0.51,0.69
1.200,0.52,0.40,-0.41,0.77
1.210,0.11,0.18,-0.11,0.24
1.220,-0.17,0.15,-0.02,0.23
1.231,-0.34,-0.25,0.21,0.47
1.241,-0.60,-0.01,-0.02,0.60
1.251,-0.28,0.30,-0.06,0.42
1.261,-0.20,0.37,-0.26,0.49
1.271,0.18,0.12,0.15,0.26
1.281,0.29,-0.35,-0.35,0.57
1.291,-0.06,-0.51,-0.03,0.52
1.301,0.25,-0.16,-0.07,0.31
1.311,0.10,0.14,-0.12,0.20
1.321,0.14,0.46,0.03,0.48
1.331,0.56,0.19,-0.02,0.59
1.341,-0.27,0.21,-0.08,0.35
1.352,-0.06,-0.07,-0.06,0.11
1.362,-0.25,-0.16,0.05,0.30
1.372,-0.29,-0.19,0.28,0.44
1.382,-0.60,0.54,-0.10,0.81
1.392,0.21,0.33,0.02,0.39
1.402,-0.10,-0.15,-0.17,0.25
1.412,0.05,-0.29,-0.52,0.59
1.422,0.14,-0.34,0.42,0.55
1.432,-0.02,-0.16,-0.41,0.44
1.442,0.27,0.11,-0.27,0.40
1.452,0.16,0.48,0.78,0.93
1.463,0.59,0.20,-0.98,1.16
1.473,-0.15,0.06,0.22,0.27
1.483,0.06,-0.19,-0.01,0.20
1.493,-0.53,0.05,-0.06,0.54
1.503,-0.37,0.11,0.37,0.53
1.513,-0.32,0.47,-0.01,0.57
1.523,0.09,0.17,-0.35,0.40
1.533,-0.08,-0.09,0.06,0.14
1.543,0.11,-0.19,-0.30,0.37
1.553,0.10,-0.33,-0.03,0.35
1.563,0.06,-0.25,-0.30,0.39
1.574,0.13,-0.01,0.06,0.15
1.583,0.60,0.36,0.03,0.70
1.594,0.21,0.50,0.01,0.54
1.604,-0.05,0.07,-0.10,0.13
1.614,-0.15,-0.15,-0.07,0.22
1.624,-0.40,-0.09,-0.02,0.41
1.634,-0.38,0.30,0.66,0.82
1.644,-0.15,0.41,-0.36,0.57
1.654,-0.21,-0.03,-0.28,0.35
1.664,0.29,-0.34,0.25,0.52
1.674,-0.12,-0.06,-0.62,0.63
1.684,0.12,-0.28,0.21,0.37
1.695,-0.02,-0.18,-0.20,0.27
1.705,0.02,0.22,-0.30,0.37
1.715,0.44,0.36,0.32,0.66
1.725,0.33,0.32,-0.09,0.47
1.735,0.19,0.15,-0.58,0.63
1.745,-0.18,-0.25,0.44,0.54
1.755,-0.18,-0.17,-0.31,0.40
1.765,-0.70,0.11,0.69,0.99
1.775,-0.31,0.65,-0.41,0.83
1.785,0.06,0.01,0.01,0.07
1.795,-0.06,-0.28,-0.11,0.31
1.806,0.15,-0.30,-0.22,0.40
1.815,0.07,-0.06,-0.26,0.27
1.825,0.09,-0.12,0.09,0.17
1.836,0.30,-0.11,-0.05,0.32
1.846,0.40,0.33,-0.32,0.61
1.856,0.25,0.35,0.58,0.72
1.866,-0.06,0.27,-0.65,0.70
1.876,-0.17,-0.25,-0.04,0.30
1.886,-0.27,-0.10,0.17,0.34
1.896,-0.49,0.31,0.36,0.68
1.906,-0.34,0.55,-0.21,0.68
1.916,-0.23,0.05,0.03,0.23
1.926,0.52,-0.29,-0.52,0.79
1.937,-0.10,-0.35,0.36,0.51
1.947,0.04,-0.17,-0.61,0.63
1.957,-0.06,0.00,0.18,0.19
1.967,0.35,-0.08,-0.24,0.43
1.977,0.30,0.28,0.37,0.55
1.987,0.32,0.28,-0.03,0.43
1.997,-0.08,0.31,-0.43,0.54
2.007,0.24,-0.08,0.29,0.38
2.017,-0.61,-0.07,0.09,0.62
2.027,-0.48,-0.00,0.17,0.50
2.037,-0.39,0.34,-0.02,0.52
2.047,-0.05,0.44,-0.02,0.44
2.058,0.11,-0.13,0.01,0.18
2.067,0.06,-0.45,-0.38,0.59
2.078,0.07,-0.34,0.06,0.35
2.088,0.06,-0.08,-0.07,0.12
2.098,0.08,0.07,-0.21,0.23
2.108,0.50,0.23,-0.02,0.55
2.118,0.35,0.33,0.28,0.56
2.128,-0.05,0.25,-0.49,0.56
2.139,-0.20,0.19,0.05,0.28
2.148,-0.18,-0.39,0.34,0.55
2.158,-0.59,0.13,-0.17,0.63
2.168,-0.19,0.34,0.38,0.54
2.179,-0.20,0.29,-0.45,0.57
2.189,0.12,-0.25,0.33,0.43
2.199,0.36,-0.59,-0.79,1.05
2.209,-0.11,-0.43,0.22,0.49
2.219,0.20,0.19,-0.15,0.31
2.229,-0.12,0.16,0.23,0.31
2.239,0.52,0.18,-0.66,0.86
2.249,0.31,0.26,0.46,0.62
2.259,0.12,0.34,-0.59,0.69
2.269,-0.28,0.00,0.32,0.43
2.280,-0.24,-0.15,0.04,0.28
2.289,-0.63,-0.11,-0.00,0.64
2.300,-0.24,0.40,0.05,0.47
2.310,-0.02,0.33,0.10,0.34
2.320,0.07,-0.14,-0.56,0.58
2.330,0.26,-0.59,-0.02,0.64
2.340,-0.08,-0.31,-0.17,0.36
2.350,-0.05,-0.04,-0.03,0.07
2.360,0.37,0.28,0.15,0.49
2.370,0.37,0.31,-0.05,0.49
2.380,0.44,0.24,-0.41,0.64
2.390,-0.17,0.19,0.09,0.27
2.401,-0.21,-0.25,-0.11,0.35
2.411,-0.54,0.14,0.35,0.66
2.420,-0.30,-0.09,0.06,0.31
2.431,-0.31,0.51,-0.47,0.76
2.441,0.16,0.06,0.47,0.50
2.451,-0.01,-0.17,-0.59,0.62
2.461,0.03,-0.37,-0.05,0.38
2.471,0.23,-0.33,-0.23,0.47
2.481,-0.09,-0.07,0.11,0.16
2.491,0.36,0.35,-0.08,0.50
2.501,0.35,0.39,0.14,0.54
2.511,0.29,0.18,-0.40,0.53
2.521,-0.16,0.07,0.13,0.22
2.532,0.07,-0.22,-0.31,0.39
2.542,-0.72,0.03,0.46,0.86
2.552,-0.42,0.44,0.09,0.61
2.562,-0.18,0.30,-0.28,0.44
2.572,0.04,-0.13,0.03,0.14
2.582,-0.07,-0.15,0.05,0.17
2.592,0.18,-0.38,-0.46,0.62
2.602,0.22,-0.47,-0.01,0.52
2.612,0.31,-0.14,-0.21,0.40
2.622,0.19,0.39,0.11,0.45
2.632,0.22,0.61,0.53,0.83
2.643,0.28,0.38,-0.91,1.02
2.653,-0.32,-0.22,0.34,0.52
2.663,0.03,-0.30,-0.05,0.31
2.673,-0.55,0.14,0.26,0.63
2.683,-0.72,0.65,-0.08,0.98
2.693,0.11,0.35,-0.10,0.38
2.703,0.18,-0.49,-0.01,0.53
2.713,-0.02,-0.38,-0.35,0.51
2.723,0.16,-0.19,-0.13,0.28
2.733,0.07,-0.30,0.14,0.34
2.744,0.15,0.06,-0.43,0.46
2.753,0.18,0.42,0.42,0.62
2.764,0.60,0.50,-0.01,0.78
2.774,0.08,0.18,-0.57,0.60
2.784,-0.13,-0.20,0.39,0.46
2.794,-0.12,-0.08,0.03,0.14
2.804,-1.01,0.29,0.14,1.06
2.814,-0.37,0.61,-0.14,0.72
2.824,-0.03,0.13,0.18,0.23
2.834,0.42,-0.35,-0.34,0.65
2.844,0.14,-0.49,0.04,0.51
2.854,-0.06,-0.29,-0.05,0.30
2.864,0.09,-0.35,-0.54,0.66
2.874,-0.13,0.04,0.29,0.32
2.884,0.69,0.29,0.07,0.75
2.895,0.26,0.64,-0.51,0.86
2.905,0.16,0.09,0.48,0.51
2.915,-0.03,-0.12,-0.43,0.44
2.925,-0.76,-0.22,0.35,0.87
2.935,-0.28,0.42,-0.01,0.51
2.945,-0.49,0.53,0.07,0.73
2.955,-0.07,0.14,-0.37,0.40
2.965,0.37,-0.35,-0.10,0.52
2.975,0.09,-0.47,0.21,0.52
2.985,0.09,-0.26,-0.49,0.56
2.996,-0.25,0.03,0.02,0.25
3.006,0.43,0.08,0.12,0.45
3.016,0.40,0.19,0.00,0.44
3.026,0.18,0.29,-0.31,0.46
3.036,0.33,0.27,-0.14,0.44
3.046,-0.37,-0.21,0.43,0.61
3.056,-0.66,0.00,-0.08,0.67
3.066,-0.37,0.43,-0.04,0.57
3.076,-0.19,0.50,0.08,0.54
3.086,0.01,0.09,-0.24,0.26
3.096,0.20,-0.32,-0.31,0.49
3.106,0.21,-0.61,0.25,0.69
3.117,-0.14,-0.29,-0.39,0.51
3.127,-0.01,0.01,-0.24,0.24
3.137,0.44,0.04,0.22,0.49
3.147,0.31,0.39,0.05,0.50
3.157,0.40,0.20,-0.16,0.47
3.167,-0.14,0.19,-0.11,0.26
3.177,-0.14,-0.20,0.11,0.26
3.187,-0.56,-0.07,0.07,0.57
3.197,-0.41,0.43,0.09,0.60
3.207,-0.27,0.43,0.18,0.54
3.217,-0.00,0.15,-0.70,0.72
3.228,0.34,-0.32,0.17,0.49
3.238,0.27,-0.59,-0.07,0.66
3.248,-0.29,-0.32,-0.58,0.72
3.258,0.23,0.07,0.21,0.32
3.268,0.35,0.24,0.23,0.49
3.278,0.30,0.41,-0.24,0.56
3.288,0.13,0.24,0.02,0.27
3.298,0.13,-0.02,-0.42,0.44
3.308,-0.47,-0.13,0.51,0.71
3.318,-0.39,-0.08,0.04,0.40
3.328,-0.31,0.46,0.07,0.56
3.338,-0.18,0.51,-0.10,0.55
3.348,-0.01,-0.08,0.03,0.09
3.359,-0.18,-0.43,0.01,0.47
3.369,0.35,-0.38,-0.77,0.93
3.379,0.14,-0.30,0.31,0.45
3.389,0.25,0.14,0.07,0.30
3.399,0.32,0.34,-0.39,0.60
3.409,0.22,0.20,0.78,0.83
3.419,0.32,0.11,-0.87,0.93
3.429,-0.42,-0.09,0.18,0.46
3.439,0.05,-0.15,0.11,0.19
3.449,-0.43,0.08,0.12,0.46
3.460,-0.61,0.43,0.30,0.81
3.469,0.10,0.47,-0.42,0.63
3.480,-0.16,-0.09,-0.08,0.20
3.490,0.17,-0.17,-0.36,0.43
3.500,0.17,-0.53,0.26,0.62
3.510,-0.09,-0.24,-0.38,0.46
3.520,0.19,0.20,-0.20,0.34
3.530,0.33,0.33,0.65,0.80
3.540,0.34,0.32,-0.36,0.59
3.550,0.21,0.06,-0.18,0.28
3.560,-0.20,0.02,-0.10,0.22
3.570,-0.27,-0.29,0.19,0.44
3.580,-0.25,0.01,-0.05,0.25
3.591,-0.61,0.52,0.42,0.90
3.601,0.07,0.41,-0.53,0.68
3.611,0.13,-0.03,-0.05,0.14
3.621,-0.03,-0.25,-0.00,0.25
3.631,0.10,-0.35,-0.30,0.48
3.641,0.13,-0.35,0.12,0.39
3.651,0.02,0.06,-0.30,0.30
3.661,0.34,0.32,0.23,0.52
3.671,0.58,0.43,-0.17,0.75
3.681,-0.06,0.05,0.05,0.09
3.691,-0.14,-0.08,-0.44,0.47
3.701,-0.28,-0.18,0.51,0.61
3.712,-0.50,0.30,0.07,0.59
3.722,-0.26,0.40,-0.08,0.49
3.732,0.06,0.18,-0.23,0.30
3.742,0.09,-0.25,0.17,0.32
3.752,0.01,-0.29,-0.37,0.47
3.762,-0.10,-0.13,-0.17,0.23
3.772,0.16,-0.25,0.21,0.36
3.782,0.20,-0.03,-0.23,0.31
3.792,0.26,0.14,0.19,0.35
3.802,0.41,0.56,-0.33,0.77
3.813,0.10,0.11,0.46,0.49
3.822,-0.44,0.19,-0.56,0.74
3.833,0.08,-0.46,0.34,0.57
3.843,-0.48,0.18,-0.10,0.52
3.853,-0.39,0.51,0.26,0.69
3.863,0.08,0.14,-0.22,0.27
3.873,-0.08,-0.11,-0.05,0.14
3.883,0.18,-0.41,-0.24,0.51
3.893,0.01,-0.17,-0.07,0.18
3.903,0.01,-0.28,0.00,0.28
3.913,0.11,-0.01,-0.30,0.32
3.923,0.49,0.06,0.33,0.60
3.934,0.28,0.47,-0.23,0.59
3.944,0.13,0.57,-0.32,0.67
3.954,-0.29,0.07,0.20,0.36
3.964,-0.07,-0.26,-0.25,0.37
3.974,-0.44,-0.17,0.37,0.60
3.984,-0.48,0.42,-0.14,0.65
3.994,0.04,0.36,-0.08,0.37
4.004,0.07,-0.23,0.12,0.27
4.014,0.13,-0.25,-0.65,0.70
4.024,0.08,-0.33,0.24,0.41
4.034,0.02,-0.06,-0.29,0.30
4.044,-0.05,-0.15,0.10,0.18
4.055,0.45,0.14,-0.37,0.60
4.065,0.46,0.34,0.39,0.69
4.075,0.16,0.30,-0.08,0.35
4.085,-0.21,0.32,-0.33,0.51
4.095,-0.28,-0.23,0.44,0.57
4.105,-0.43,-0.21,0.08,0.49
4.115,-0.44,0.35,-0.35,0.66
4.125,0.10,0.37,0.31,0.49
4.135,-0.09,-0.03,-0.29,0.31
4.145,0.00,-0.46,-0.14,0.48
4.155,0.21,-0.33,-0.10,0.41
4.165,0.06,-0.05,-0.02,0.08
4.176,0.03,-0.00,-0.24,0.25
4.186,0.41,0.07,0.07,0.43
4.196,0.50,0.33,-0.03,0.59
4.206,0.06,0.25,-0.15,0.30
4.216,-0.04,0.13,0.03,0.14
4.226,-0.54,0.32,0.03,0.63
4.236,-0.30,0.01,0.30,0.42
4.246,-0.37,-0.13,0.17,0.43
4.256,-0.23,0.30,-0.44,0.58
4.266,0.10,-0.09,0.35,0.37
4.276,0.37,-0.44,-0.63,0.86
4.286,-0.08,-0.27,-0.11,0.31
4.297,0.05,-0.24,0.25,0.35
4.307,-0.04,0.08,0.07,0.11
4.317,0.47,0.26,-0.64,0.83
4.327,0.50,0.26,0.06,0.57
4.337,0.13,0.27,0.20,0.36
4.347,-0.23,0.36,-0.24,0.49
4.357,-0.54,0.16,0.23,0.61
4.367,-0.35,-0.22,0.20,0.46
4.377,-0.34,0.09,-0.30,0.46
4.387,0.05,-0.13,0.22,0.26
4.397,0.11,-0.05,-0.29,0.31
4.408,0.03,-0.20,-0.18,0.27
4.418,0.05,-0.34,0.20,0.40
4.428,0.19,-0.11,-0.79,0.83
4.438,0.11,-0.13,0.63,0.65
4.448,0.71,0.40,0.17,0.84
4.458,0.36,0.15,-1.32,1.38
4.468,-0.33,0.13,1.08,1.14
4.478,0.11,0.47,-0.58,0.75
4.488,-1.19,0.57,0.60,1.45
4.498,0.14,-0.06,-0.25,0.29
4.508,-0.30,-0.31,0.18,0.46
4.519,-0.11,-0.07,-0.02,0.13
4.529,0.36,-0.09,-0.54,0.65
4.539,0.04,-0.20,0.55,0.59
4.549,-0.10,-0.27,-0.78,0.83
4.559,-0.01,-0.36,0.54,0.65
4.569,0.30,0.11,-0.04,0.32
4.579,0.51,0.52,-1.19,1.40
4.589,0.40,0.15,1.12,1.20
4.599,0.04,0.37,-0.47,0.60
4.609,-0.36,0.19,-0.15,0.44
4.619,-0.46,0.08,0.42,0.63
4.629,-0.56,0.09,0.02,0.57
4.640,-0.24,0.11,-0.41,0.49
4.649,0.30,-0.18,0.26,0.44
4.660,0.17,-0.23,-0.38,0.47
4.670,-0.09,-0.15,0.05,0.18
4.680,0.13,-0.40,-0.06,0.42
4.690,-0.10,-0.18,0.05,0.21
4.700,0.51,0.03,-0.47,0.69
4.710,0.54,0.55,-0.18,0.79
4.720,0.74,0.25,0.05,0.79
4.730,-0.68,0.25,-0.13,0.74
4.740,-0.35,0.35,-0.20,0.54
4.750,-0.53,0.15,1.07,1.21
4.761,-0.51,0.34,-1.04,1.20
4.771,0.01,-0.37,0.89,0.96
4.781,0.38,-0.25,-1.06,1.15
4.791,-0.01,-0.54,0.59,0.80
4.801,-0.05,0.00,-0.25,0.25
4.811,-0.28,-0.16,0.01,0.32
4.821,0.43,-0.18,-0.38,0.61
4.831,0.46,0.22,-0.37,0.63
4.841,0.55,0.55,-0.11,0.78
4.851,0.31,0.27,0.24,0.48
4.861,-0.41,0.03,0.27,0.49
4.872,-0.38,0.34,-0.28,0.58
4.882,-0.69,0.15,0.52,0.88
4.892,-0.30,-0.00,-0.12,0.32
4.902,0.16,-0.02,-0.37,0.41
4.912,0.18,-0.25,0.28,0.41
4.922,0.18,-0.48,-0.19,0.55
4.932,-0.43,-0.13,0.05,0.45
4.942,0.02,-0.07,-0.17,0.19
4.952,0.19,-0.21,-0.17,0.33
4.962,0.50,0.22,-0.31,0.62
4.972,0.74,0.59,-0.44,1.04
4.982,0.19,0.31,0.04,0.37
4.992,-0.27,0.05,0.79,0.84
5.003,-0.89,0.43,-0.12,0.99
5.013,-0.42,-0.04,0.10,0.44
5.023,-0.28,0.02,0.28,0.40
5.033,0.16,-0.01,-0.49,0.51
5.043,0.15,-0.56,0.10,0.58
5.053,-0.11,-0.38,0.06,0.40
5.063,0.13,-0.19,-0.10,0.25
5.073,-0.24,-0.00,-0.54,0.59
5.083,0.20,-0.04,0.01,0.21
5.093,0.57,0.38,-0.20,0.71
5.103,0.73,0.27,-0.20,0.81
5.114,0.00,0.28,-0.44,0.52
5.124,-0.45,-0.04,1.08,1.17
5.134,-0.49,0.59,-0.50,0.92
5.144,-0.71,0.08,0.61,0.94
5.154,0.05,0.12,-0.59,0.61
5.164,-0.12,-0.20,0.37,0.44
5.174,0.29,-0.41,-0.15,0.53
5.184,-0.11,-0.39,-0.48,0.63
5.194,-0.07,-0.23,0.14,0.27
5.204,0.09,0.16,0.02,0.19
5.214,0.38,-0.01,-0.88,0.96
5.224,0.59,0.24,-0.07,0.64
5.234,0.25,0.62,0.17,0.69
5.245,0.35,0.23,-0.10,0.43
5.255,-0.27,0.12,-0.69,0.75
5.265,-0.67,-0.28,1.67,1.82
5.275,-0.37,-0.06,-0.00,0.38
5.285,-0.43,0.21,-0.40,0.63
5.295,0.02,0.11,-0.05,0.12
5.305,0.14,-0.18,0.11,0.26
5.315,-0.03,-0.30,-0.56,0.63
5.325,0.22,-0.36,0.09,0.43
5.335,-0.03,0.01,-0.14,0.14
5.346,0.20,0.16,-0.25,0.36
5.355,0.79,0.23,-0.27,0.87
5.366,0.26,0.47,-0.40,0.67
5.376,-0.09,0.24,0.28,0.38
5.386,-0.22,0.14,-0.14,0.29
5.396,-0.43,-0.42,0.50,0.78
5.406,-0.71,-0.16,0.43,0.85
5.416,-0.26,0.21,-0.18,0.38
5.426,-0.20,0.39,0.36,0.56
5.436,-0.50,1.09,0.41,1.27
5.446,-0.65,0.97,-0.21,1.19
5.456,-0.56,0.26,0.84,1.04
5.467,0.20,-0.66,-0.39,0.80
5.477,0.32,-0.55,-0.64,0.90
5.487,0.95,-0.10,0.30,1.00
5.497,0.94,-0.52,0.18,1.09
5.507,-0.26,0.00,-1.22,1.25
5.517,0.29,0.05,0.47,0.56
5.527,0.50,0.73,0.06,0.88
5.537,1.12,0.66,-1.02,1.65
5.547,-0.09,0.72,-0.03,0.73
5.557,0.49,-0.35,0.08,0.60
5.567,-0.33,-0.43,-0.47,0.71
5.577,-0.13,-0.84,0.14,0.87
5.588,-0.33,-0.49,-0.20,0.62
5.598,0.19,-0.19,-0.43,0.51
5.608,0.00,0.31,0.37,0.48
5.618,-0.03,0.19,-0.11,0.22
5.628,-0.09,-0.17,-1.01,1.03
5.638,-0.31,-0.12,0.34,0.48
5.648,0.10,-0.16,0.06,0.20
5.658,0.10,-0.33,-0.88,0.94
5.668,-0.27,-0.79,0.99,1.29
5.678,-0.04,-0.06,-0.50,0.51
5.688,-0.03,-0.04,-0.14,0.15
5.699,-0.54,0.58,0.02,0.80
5.709,0.09,0.49,-0.24,0.55
5.719,-0.02,0.05,-0.45,0.46
5.729,-0.13,-0.64,0.64,0.92
5.739,0.55,-0.24,-1.46,1.59
5.749,-0.02,-0.59,0.93,1.11
5.759,-0.11,-0.54,-0.98,1.13
5.769,-0.86,-0.07,0.72,1.13
5.779,-0.71,0.62,0.71,1.18
5.789,-0.06,1.39,-0.90,1.66
5.799,-0.78,1.67,1.42,2.33
5.809,0.25,1.00,-1.05,1.47
5.820,0.31,-0.73,0.84,1.15
5.830,1.25,-1.48,-0.70,2.06
5.840,0.21,-1.06,0.48,1.18
5.850,-0.40,-0.20,0.61,0.76
5.860,-0.05,0.18,-1.32,1.33
5.870,-0.15,0.11,0.39,0.43
5.880,0.42,0.86,-0.26,0.99
5.890,1.60,0.32,-0.87,1.85
5.900,-0.32,0.31,0.54,0.70
5.910,-0.09,0.20,-0.21,0.30
5.920,-1.08,0.26,1.08,1.55
5.931,-1.26,0.88,-0.48,1.61
5.941,0.54,-0.63,0.28,0.88
5.951,0.09,-0.91,0.03,0.91
5.961,0.11,-0.21,-0.94,0.97
5.971,0.32,-0.14,0.75,0.83
5.981,-0.11,-0.03,-0.45,0.47
5.991,-0.22,-0.08,-0.14,0.27
6.001,0.49,0.11,-0.41,0.65
6.011,0.71,0.38,-0.14,0.82
6.021,0.66,0.24,0.18,0.72
6.031,-0.33,0.57,-0.71,0.97
6.041,-0.05,-0.31,0.43,0.53
6.051,-1.05,0.27,1.09,1.54
6.062,-0.96,1.04,-0.65,1.55
6.072,0.16,-0.02,-0.17,0.23
6.082,0.25,-1.12,1.21,1.67
6.092,0.29,-0.66,-1.44,1.61
6.102,-0.01,-0.11,-0.01,0.12
6.112,0.15,0.02,0.55,0.57
6.122,-0.30,0.18,-0.82,0.89
6.132,0.13,-0.06,-0.25,0.29
6.142,0.62,0.13,0.34,0.72
6.152,0.62,0.49,-0.52,0.95
6.162,0.40,-0.02,-0.34,0.52
6.173,-0.29,0.20,0.54,0.64
6.183,-0.90,0.51,0.57,1.18
6.193,-0.85,0.52,-0.15,1.00
6.203,-0.14,0.22,0.20,0.33
6.213,0.10,-0.58,0.17,0.61
6.223,0.36,-0.83,-0.54,1.06
6.233,0.06,-0.50,0.05,0.50
6.243,0.16,-0.12,0.21,0.29
6.253,-0.09,0.27,-0.93,0.97
6.263,0.17,0.24,0.07,0.30
6.273,0.55,0.34,0.18,0.67
6.283,0.71,0.21,-1.06,1.29
6.293,0.08,0.09,0.45,0.47
6.303,-0.48,0.43,0.04,0.64
6.314,-0.49,0.04,0.60,0.78
6.324,-1.08,0.71,-0.21,1.31
6.334,0.22,-0.09,0.43,0.49
6.344,-0.07,-0.65,-0.20,0.68
6.354,0.37,-0.74,-0.46,0.94
6.364,0.19,-0.48,0.41,0.66
6.374,-0.09,-0.13,-0.56,0.59
6.384,-0.28,0.36,-0.31,0.55
6.394,0.83,0.37,0.27,0.95
6.404,0.37,0.47,-0.95,1.12
6.415,0.77,-0.18,0.28,0.84
6.425,-0.44,0.42,-0.01,0.61
6.435,-0.26,0.06,-0.31,0.41
6.445,-0.76,0.27,1.24,1.47
6.455,-0.63,0.61,-0.42,0.97
6.465,0.18,-0.57,-0.04,0.59
6.475,0.04,-0.69,0.56,0.89
6.485,0.14,-0.30,-0.66,0.74
6.495,-0.04,-0.25,0.02,0.25
6.505,-0.00,0.03,0.08,0.09
6.516,0.22,0.07,-0.56,0.61
6.526,0.27,0.39,-0.13,0.50
6.536,1.04,0.20,-0.19,1.07
6.546,-0.01,0.30,-0.34,0.46
6.556,0.03,0.13,-0.11,0.17
6.566,-0.83,0.05,0.75,1.12
6.576,-0.55,0.28,-0.06,0.61
6.586,-0.21,-0.01,0.13,0.24
6.596,-0.19,0.02,0.38,0.43
6.606,0.08,-0.28,-0.53,0.60
6.616,0.21,-0.36,-0.18,0.46
6.626,0.04,-0.32,0.23,0.39
6.636,-0.07,-0.03,-0.67,0.67
6.647,0.28,-0.13,0.45,0.54
6.657,0.40,0.46,-0.69,0.92
6.667,0.58,0.48,-0.34,0.82
6.677,0.25,0.17,0.31,0.43
6.687,-0.21,0.09,-0.37,0.43
6.697,-0.91,0.20,1.03,1.38
6.707,-0.41,0.50,-0.19,0.68
6.717,-0.34,-0.14,0.06,0.37
6.727,0.09,-0.29,-0.15,0.34
6.737,0.23,-0.61,0.36,0.75
6.747,0.01,-0.22,-0.60,0.64
6.757,-0.01,-0.08,-0.24,0.26
6.768,0.24,-0.26,0.24,0.42
6.778,-0.18,0.04,-0.16,0.25
6.788,0.82,0.35,-0.66,1.11
6.798,0.63,0.37,0.25,0.77
6.808,0.04,0.27,-0.43,0.51
6.818,-0.63,0.40,0.44,0.87
6.828,-0.41,0.18,0.61,0.75
6.838,-0.62,0.41,-0.83,1.11
6.848,-0.31,-0.16,0.99,1.05
6.858,0.37,-0.52,-0.81,1.03
6.868,0.28,-0.70,0.17,0.77
6.879,-0.14,-0.21,0.22,0.34
6.889,-0.05,0.01,-0.16,0.17
6.899,-0.05,0.05,-0.39,0.40
6.909,0.50,-0.02,-0.42,0.66
6.919,0.68,0.37,0.25,0.82
6.929,0.31,0.52,-0.51,0.79
6.939,-0.08,-0.11,0.09,0.17
6.949,-0.56,0.41,0.24,0.74
6.959,-0.36,0.36,0.66,0.84
6.969,-0.78,0.16,-0.50,0.94
6.979,0.08,-0.33,0.17,0.38
6.989,0.10,-0.27,-0.24,0.38
7.000,0.35,-0.40,-0.15,0.55
7.010,0.01,-0.18,0.18,0.25
7.020,-0.13,0.00,-0.04,0.14
7.030,0.16,-0.10,-0.99,1.01
7.040,0.22,0.04,0.69,0.73
7.050,0.66,0.42,-0.40,0.88
7.060,0.50,0.28,-0.96,1.11
7.070,-0.37,0.19,1.21,1.28
7.080,-0.32,0.22,-0.25,0.46
7.090,-0.84,0.35,0.13,0.92
7.100,-0.30,0.15,0.18,0.39
7.110,-0.03,-0.13,-0.11,0.17
7.121,0.17,-0.39,0.11,0.44
7.131,0.36,-0.24,-0.92,1.02
7.141,-0.06,-0.37,0.87,0.95
7.151,-0.35,0.07,-0.59,0.69
7.161,0.25,-0.18,-0.12,0.33
7.171,0.39,0.11,-0.13,0.43
7.181,0.59,0.57,-0.68,1.07
7.191,0.26,-0.13,0.83,0.88
7.201,-0.35,0.57,-0.62,0.91
7.211,-0.82,0.36,1.04,1.37
7.222,-0.16,0.22,-0.85,0.89
7.232,-0.57,-0.06,0.73,0.93
7.242,0.29,-0.12,-0.24,0.40
7.252,0.01,-0.23,-0.44,0.49
7.262,0.50,-0.38,0.15,0.65
7.272,-0.29,-0.27,0.14,0.42
7.282,-0.20,0.06,-0.58,0.62
7.292,0.33,-0.20,0.18,0.42
7.302,0.35,-0.00,0.12,0.37
7.312,0.29,0.56,-1.08,1.25
7.322,0.44,-0.21,0.79,0.93
7.332,-0.41,0.77,-0.09,0.87
7.342,-1.00,1.18,0.97,1.82
7.353,-0.67,0.89,0.95,1.46
7.363,0.19,0.54,0.05,0.57
7.373,0.28,-0.20,0.18,0.39
7.383,-0.56,-0.42,-1.20,1.39
7.393,-0.33,0.23,-0.36,0.54
7.403,-0.18,0.85,-0.69,1.11
7.413,0.78,0.75,0.18,1.10
7.423,0.57,0.68,1.11,1.42
7.433,0.03,0.92,-0.50,1.05
7.443,0.02,0.66,-0.70,0.96
7.453,1.15,0.23,-0.01,1.17
7.464,-0.03,0.02,0.14,0.15
7.473,-0.41,0.28,-0.38,0.63
7.484,-0.31,0.28,0.78,0.88
7.494,-0.03,-0.02,-0.42,0.43
7.504,-0.24,-0.25,-0.29,0.45
7.514,-0.16,-0.29,-0.04,0.33
7.524,-0.05,-0.41,-0.03,0.42
7.534,-0.03,-0.52,-0.32,0.61
7.544,0.14,-0.63,-0.08,0.65
7.554,0.50,-0.64,-0.07,0.81
7.564,0.62,-0.70,-0.10,0.94
7.574,0.55,-0.83,-0.72,1.23
7.584,0.51,-1.23,-0.08,1.33
7.595,-0.47,-1.05,0.97,1.51
7.605,-0.30,-0.60,-1.10,1.29
7.615,-0.55,-0.51,-0.04,0.75
7.625,-1.07,0.19,1.36,1.74
7.635,-0.44,0.60,-0.71,1.03
7.645,-0.11,1.30,-3.51,3.74
7.655,-0.33,1.80,-2.19,2.86
7.665,0.48,2.43,-4.61,5.23
7.675,1.09,-2.25,7.23,7.65
7.685,-0.83,-1.32,9.20,9.33
7.695,1.02,1.54,-10.90,11.05
7.706,0.10,-1.37,3.83,4.07
7.716,0.15,-0.95,1.13,1.48
7.726,0.97,-1.34,-1.97,2.57
7.736,-1.21,-0.41,0.81,1.51
7.746,0.08,0.42,0.68,0.81
7.756,-1.06,1.19,-0.95,1.86
7.766,-0.07,0.27,0.85,0.90
7.776,0.54,-0.05,-0.34,0.64
7.786,-0.24,-0.28,-0.32,0.49
7.796,0.35,-0.91,0.51,1.10
7.806,-0.05,-0.23,-0.67,0.71
7.816,0.42,0.37,-0.82,0.99
7.827,0.16,0.65,1.02,1.22
7.837,0.42,0.62,-0.91,1.18
7.847,0.31,-0.17,-0.47,0.59
7.857,-0.59,-0.22,1.31,1.46
7.867,-0.26,-0.08,-0.57,0.63
7.877,-0.55,0.06,0.11,0.57
7.887,-0.01,0.17,0.49,0.52
7.897,-0.11,0.42,-0.65,0.78
7.907,0.26,-0.36,0.22,0.49
7.917,-0.17,-0.39,-0.00,0.42
7.927,-0.07,-0.20,-0.16,0.27
7.937,-0.05,-0.18,-0.12,0.22
7.948,0.43,0.13,-0.40,0.60
7.958,0.62,0.45,-0.17,0.79
7.968,0.32,0.61,-0.21,0.72
7.978,0.22,-0.05,-0.20,0.30
7.988,-0.60,0.02,0.55,0.81
7.998,-0.32,-0.16,-0.16,0.39
8.008,-0.52,0.05,0.14,0.54
8.018,-0.11,0.29,0.14,0.34
8.028,0.19,0.02,-0.47,0.51
8.038,-0.20,-0.25,0.28,0.42
8.048,0.22,-0.31,-0.37,0.53
8.058,-0.31,-0.11,0.25,0.41
8.069,0.14,-0.18,-0.39,0.45
8.079,0.20,0.06,-0.39,0.44
8.089,0.73,0.32,-0.17,0.81
8.099,0.57,0.44,-0.05,0.72
8.109,0.07,-0.16,-0.03,0.17
8.119,-0.59,0.24,-0.20,0.67
8.129,-0.57,0.30,0.80,1.03
8.139,-0.39,0.05,-0.50,0.64
8.149,-0.31,0.07,0.21,0.38
8.159,0.38,0.01,0.01,0.38
8.169,0.13,-0.34,-0.12,0.38
8.180,-0.08,-0.28,-0.27,0.40
8.190,-0.23,-0.30,0.58,0.69
8.200,0.02,-0.06,-0.82,0.82
8.210,0.33,-0.16,0.17,0.40
8.220,0.35,0.46,-0.45,0.73
8.230,0.86,0.19,-0.25,0.92
8.240,-0.07,0.19,0.32,0.38
8.250,-0.43,0.29,-0.07,0.52
8.260,-0.59,0.27,0.14,0.66
8.270,-0.52,0.47,0.06,0.70
8.280,-0.22,-0.09,0.10,0.26
8.290,0.04,-0.19,-0.17,0.26
8.301,0.45,-0.59,-0.33,0.81
8.311,-0.28,-0.58,0.33,0.73
8.321,0.19,-0.28,0.15,0.37
8.331,-0.09,0.32,-0.71,0.78
8.341,0.14,0.19,-0.03,0.24
8.351,0.73,0.09,0.12,0.74
8.361,0.51,0.25,-1.06,1.21
8.371,-0.07,-0.01,0.96,0.96
8.381,0.02,0.32,-0.32,0.46
8.391,-0.97,0.31,0.34,1.07
8.401,-0.24,0.51,-0.33,0.66
8.412,-0.39,-0.13,0.54,0.68
8.422,0.12,-0.29,-0.36,0.47
8.432,0.13,-0.51,-0.35,0.63
8.442,-0.04,-0.51,0.53,0.74
8.452,0.10,-0.20,-0.72,0.76
8.462,-0.08,0.12,0.00,0.14
8.472,0.40,0.24,-0.22,0.52
8.482,0.58,0.38,-0.66,0.96
8.492,0.47,0.10,0.26,0.55
8.502,0.11,-0.04,-0.22,0.24
8.513,-0.58,0.28,0.39,0.75
8.523,-0.68,0.52,0.27,0.90
8.533,-0.34,0.30,-0.55,0.71
8.543,-0.24,-0.37,0.76,0.88
8.553,0.33,-0.29,-0.80,0.91
8.563,0.02,-0.20,0.14,0.24
8.573,0.21,-0.32,0.09,0.39
8.583,-0.21,-0.17,-0.30,0.41
8.593,-0.02,-0.10,-0.18,0.21
8.603,0.28,0.20,-0.30,0.46
8.613,0.72,0.31,-0.35,0.86
8.623,0.56,0.19,-0.00,0.59
8.633,-0.21,-0.01,0.40,0.45
8.644,-0.62,0.37,-0.35,0.80
8.654,-0.25,0.54,0.50,0.78
8.664,-0.57,0.07,0.19,0.60
8.674,-0.05,-0.18,-0.38,0.42
8.684,0.21,-0.29,-0.15,0.39
8.694,0.11,-0.20,-0.04,0.23
8.704,-0.09,-0.41,0.20,0.47
8.714,-0.09,-0.26,-0.30,0.41
8.724,0.24,-0.09,-0.37,0.45
8.734,0.34,0.43,0.08,0.56
8.744,0.76,0.35,-0.60,1.03
8.754,0.04,0.04,0.37,0.38
8.764,-0.18,0.41,-0.27,0.52
8.775,-0.19,0.10,0.79,0.82
8.785,-0.83,0.45,-0.48,1.05
8.795,-0.47,-0.18,0.53,0.73
8.805,0.13,-0.17,-0.38,0.43
8.815,0.18,-0.34,0.01,0.38
8.825,0.18,-0.05,-0.32,0.37
8.835,-0.01,-0.39,0.54,0.67
8.845,0.04,-0.40,-0.37,0.55
8.856,-0.21,0.03,-0.64,0.67
8.865,0.61,0.28,0.32,0.74
8.876,0.73,0.48,-0.64,1.08
8.886,0.10,0.19,0.14,0.26
8.896,-0.32,0.33,0.05,0.46
8.906,-0.66,0.38,0.48,0.90
8.916,-0.27,0.22,-0.39,0.52
8.926,-0.43,-0.22,0.44,0.65
8.936,0.19,-0.26,-0.43,0.54
8.946,0.13,-0.38,0.07,0.41
8.956,0.20,-0.24,-0.26,0.41
8.966,-0.25,-0.04,0.15,0.29
8.976,0.11,-0.09,-0.31,0.35
8.986,0.35,-0.25,-0.29,0.52
8.997,0.07,0.33,0.35,0.48
9.007,0.94,0.46,-1.04,1.47
9.017,0.12,-0.12,1.26,1.27
9.027,-0.66,0.42,-0.93,1.22
9.037,-0.55,0.29,0.45,0.76
9.047,-0.33,0.16,0.55,0.66
9.057,-0.34,0.10,-0.65,0.74
9.067,0.17,-0.43,-0.11,0.48
9.077,0.05,-0.42,0.44,0.62
9.087,0.57,-0.10,-1.09,1.24
9.097,-0.27,-0.15,0.95,1.00
9.107,-0.37,-0.19,-0.42,0.59
9.118,0.28,-0.13,-0.67,0.74
9.128,0.73,0.31,0.41,0.89
9.138,0.69,0.49,-0.67,1.08
9.148,-0.29,0.04,0.70,0.76
9.158,-0.32,0.42,-0.40,0.67
9.168,-0.74,-0.01,0.93,1.19
9.178,-0.42,0.22,-0.20,0.51
9.188,-0.24,-0.03,-0.22,0.33
9.198,0.53,-0.39,-0.06,0.66
9.208,0.09,-0.36,-0.05,0.38
9.218,-0.07,-0.29,-0.24,0.38
9.228,-0.10,-0.10,0.21,0.25
9.239,-0.04,-0.03,0.23,0.24
9.249,0.49,-0.01,-1.14,1.24
9.259,0.67,0.47,0.14,0.82
9.269,0.38,0.44,0.07,0.58
9.279,-0.29,-0.04,0.20,0.36
9.289,-0.65,0.55,-0.17,0.87
9.299,-0.35,0.16,0.49,0.63
9.309,-0.33,-0.18,-0.15,0.40
9.319,-0.12,0.15,-0.57,0.60
9.329,0.27,-0.34,0.54,0.69
9.339,0.13,-0.42,-0.51,0.68
9.349,-0.23,-0.33,0.31,0.51
9.360,0.08,0.02,-0.28,0.30
9.369,0.15,0.04,-0.25,0.29
9.380,0.45,0.04,-0.06,0.46
9.390,0.59,0.38,-0.48,0.85
9.400,0.15,0.41,-0.16,0.47
9.410,-0.13,0.08,0.40,0.42
9.420,-0.67,0.32,0.09,0.75
9.430,-0.14,-0.17,0.27,0.35
9.440,-0.47,0.01,-0.23,0.53
9.450,0.00,0.08,-0.16,0.18
9.461,0.15,0.00,0.02,0.15
9.470,0.04,-0.51,0.09,0.52
9.481,-0.22,-0.41,-0.16,0.49
9.491,0.32,-0.20,-0.10,0.39
9.501,-0.22,0.27,-0.50,0.61
9.511,0.56,0.32,-0.18,0.67
9.521,0.74,0.34,-0.07,0.81
9.531,0.02,0.41,-0.26,0.48
9.541,0.32,-0.19,0.03,0.37
9.551,-0.86,-0.12,0.74,1.14
9.561,-0.30,-0.18,-0.29,0.46
9.571,-0.56,0.25,-0.16,0.63
9.581,0.12,0.31,0.32,0.46
9.592,-0.14,0.02,-0.21,0.26
9.602,0.14,-0.45,-0.05,0.47
9.612,-0.05,-0.43,-0.36,0.57
9.622,-0.04,-0.28,0.17,0.33
9.632,0.19,0.17,-0.30,0.39
9.642,0.52,0.47,-0.13,0.71
9.652,0.66,0.28,-0.45,0.85
9.662,0.03,0.37,-0.32,0.49
9.672,0.03,-0.05,0.33,0.34
9.682,-0.76,-0.07,0.47,0.90
9.692,-0.05,-0.25,-0.21,0.33
9.702,-0.43,0.04,0.30,0.53
9.713,-0.07,0.39,-0.42,0.58
9.723,-0.04,-0.09,0.40,0.41
9.733,-0.15,-0.21,-0.05,0.26
9.743,0.22,-0.45,-0.44,0.67
9.753,-0.10,-0.31,0.11,0.34
9.763,0.29,0.17,-0.31,0.46
9.773,0.61,0.49,-0.25,0.83
9.783,0.32,0.51,-0.26,0.66
9.793,0.23,0.15,-0.14,0.30
9.803,-0.30,-0.29,0.30,0.51
9.813,-0.48,-0.11,0.15,0.51
9.824,-0.33,0.11,0.20,0.41
9.834,-0.39,0.18,0.22,0.49
9.844,-0.07,0.22,-0.12,0.26
9.854,0.23,-0.19,-0.29,0.41
9.864,-0.19,-0.25,0.34,0.47
9.874,-0.01,-0.38,-0.52,0.64
9.884,0.14,-0.40,0.01,0.42
9.894,0.31,0.18,-0.38,0.53
9.904,0.61,0.50,0.20,0.81
9.914,0.36,0.56,-0.60,0.90
9.925,0.20,0.24,-0.42,0.52
9.935,-0.28,-0.27,0.96,1.03
9.945,-0.72,-0.18,-0.21,0.78
9.955,-0.30,-0.03,0.21,0.37
9.965,-0.30,0.21,0.30,0.47
9.975,0.17,0.12,-0.61,0.65
9.985,0.01,-0.17,0.38,0.42
9.995,-0.03,-0.29,0.07,0.30
10.005,-0.16,-0.26,-0.58,0.65
10.015,0.09,-0.27,0.04,0.29
10.025,0.27,0.10,-0.17,0.34
10.035,0.54,0.47,-0.42,0.83
10.046,0.44,0.46,-0.14,0.65
10.055,0.12,0.34,-0.22,0.42
10.066,-0.38,-0.17,0.84,0.94
10.076,-0.01,-0.23,-1.06,1.08
10.086,-0.75,-0.25,1.64,1.82
10.096,-0.15,0.44,-0.99,1.09
10.106,-0.43,0.22,0.36,0.60
10.116,0.54,-0.14,-0.07,0.56
10.126,-0.09,-0.43,0.23,0.49
10.136,-0.14,-0.19,-0.49,0.54
10.146,0.14,-0.27,-0.19,0.36
10.156,0.10,-0.13,0.32,0.36
10.166,0.50,0.42,-0.96,1.16
10.177,0.57,0.56,0.22,0.83
10.187,0.40,0.38,-0.41,0.69
10.197,-0.29,-0.07,0.10,0.31
10.207,-0.64,-0.08,0.52,0.83
10.217,-0.30,-0.15,0.15,0.37
10.227,-0.40,0.25,-0.21,0.52
10.237,-0.21,0.13,0.71,0.75
10.247,0.24,-0.17,-0.59,0.66
10.257,0.03,-0.54,0.07,0.55
10.267,0.22,-0.30,-0.40,0.54
10.277,0.01,-0.01,0.01,0.02
10.287,-0.16,-0.03,-0.06,0.18
10.297,0.33,0.20,-0.63,0.74
10.308,0.76,0.36,0.11,0.85
10.318,0.62,0.05,-0.65,0.90
10.328,-0.57,0.24,0.84,1.04
10.338,-0.23,0.32,-0.12,0.42
10.348,-1.01,0.34,0.20,1.08
10.358,-0.02,0.20,-0.26,0.32
10.368,-0.17,-0.11,0.14,0.24
10.378,0.26,-0.52,-0.33,0.67
10.388,0.11,-0.42,0.09,0.44
10.399,0.10,-0.23,-0.03,0.25
10.409,-0.21,-0.07,-0.12,0.25
10.419,0.08,0.00,-0.42,0.43
10.429,0.82,0.05,0.06,0.82
10.439,0.36,0.41,-0.50,0.74
10.449,0.40,0.15,-0.19,0.47
10.459,-0.35,0.30,0.60,0.76
10.469,-0.63,0.34,0.01,0.71
10.479,-0.58,0.32,0.02,0.66
10.489,-0.41,-0.08,0.27,0.50
10.499,0.24,-0.04,-0.57,0.62
10.509,0.12,-0.38,0.33,0.52
10.519,0.15,-0.57,-0.24,0.63
10.529,-0.12,-0.41,0.18,0.47
10.540,0.02,0.03,-0.69,0.69
10.550,0.23,0.29,-0.23,0.44
10.560,0.58,0.17,0.29,0.68
10.570,0.50,0.15,-0.58,0.78
10.580,0.13,0.18,-0.29,0.37
10.590,-0.14,-0.04,1.05,1.06
10.600,-0.82,0.31,-0.63,1.08
10.610,-0.36,0.17,0.23,0.46
10.620,-0.55,0.12,0.64,0.85
10.630,0.35,-0.05,-1.04,1.10
10.641,-0.07,-0.29,0.52,0.60
10.650,0.53,-0.34,-0.23,0.67
10.661,-0.18,-0.27,-0.38,0.50
10.671,-0.03,-0.10,-0.02,0.11
10.681,0.32,0.15,0.04,0.35
10.691,0.66,0.36,-0.58,0.95
10.701,0.21,-0.15,0.36,0.44
10.711,-0.01,0.16,-0.23,0.28
10.721,-0.28,0.20,0.04,0.35
10.731,-0.60,0.47,0.04,0.76
10.741,-0.23,0.27,0.16,0.39
10.751,-0.24,-0.06,0.05,0.25
10.761,0.06,-0.13,-0.58,0.59
10.772,0.13,-0.29,0.32,0.45
10.782,0.19,-0.32,-0.30,0.48
10.792,-0.00,-0.26,-0.21,0.33
10.802,0.04,-0.02,-0.09,0.10
10.812,0.06,0.05,0.48,0.49
10.822,0.83,0.29,-0.91,1.26
10.832,-0.09,0.00,0.92,0.93
10.842,0.47,0.28,-0.77,0.95
10.852,-0.50,0.08,0.38,0.63
10.862,-0.40,0.02,-0.03,0.40
10.872,-0.47,0.16,0.04,0.50
10.882,-0.36,0.33,-0.01,0.49
10.893,0.20,-0.14,-0.08,0.26
10.903,0.11,-0.30,-0.26,0.41
10.913,-0.07,-0.19,-0.28,0.34
10.923,0.32,-0.36,0.28,0.56
10.933,0.14,-0.04,-0.58,0.60
10.943,-0.06,0.07,0.31,0.33
10.953,0.70,0.23,-0.26,0.78
10.963,0.33,0.26,0.17,0.45
10.973,0.02,0.16,-0.46,0.49
10.983,-0.54,-0.02,0.14,0.56
10.994,-0.38,0.11,0.43,0.58
11.004,-0.55,0.36,-0.10,0.66
11.014,-0.16,0.17,-0.36,0.43
11.024,0.31,-0.28,-0.04,0.42
11.034,0.20,-0.43,-0.00,0.47
11.044,-0.22,-0.15,-0.32,0.42
11.054,0.18,-0.29,-0.30,0.46
11.064,-0.10,0.01,0.10,0.14
11.074,0.48,0.11,0.06,0.50
11.084,0.37,0.45,-0.38,0.69
11.094,0.32,0.15,0.05,0.36
11.104,0.01,0.07,-0.40,0.41
11.115,-0.38,-0.08,0.37,0.54
11.125,-0.35,-0.11,0.20,0.42
11.135,-0.82,0.64,-0.18,1.05
11.145,0.01,0.34,0.03,0.34
11.155,0.23,-0.31,-0.42,0.57
11.165,0.20,-0.54,-0.19,0.61
11.175,0.15,-0.33,-0.10,0.38
11.185,0.09,-0.10,0.11,0.17
11.195,0.25,-0.07,-0.30,0.40
11.205,0.12,0.27,0.15,0.33
11.215,0.56,0.31,-0.02,0.64
11.225,-0.00,0.33,-0.11,0.35
11.235,-0.18,-0.02,-0.13,0.22
11.246,-0.43,-0.22,-0.10,0.49
11.256,-0.30,0.09,0.54,0.63
11.266,-0.22,0.64,-0.22,0.72
11.276,-0.07,0.01,0.01,0.07
11.286,-0.09,-0.16,-0.33,0.38
11.296,0.37,-0.52,-0.24,0.68
11.306,0.09,-0.40,0.08,0.42
11.316,-0.05,0.17,-0.55,0.58
11.326,0.18,-0.18,0.43,0.51
11.336,0.28,0.34,-0.61,0.75
11.346,0.58,0.29,0.51,0.82
11.357,0.08,0.41,-0.38,0.57
11.367,-0.42,-0.04,-0.01,0.43
11.377,-0.20,-0.25,0.20,0.37
11.387,-0.46,0.15,-0.02,0.49
11.397,-0.34,0.35,0.22,0.53
11.407,-0.10,0.33,-0.22,0.41
11.417,0.21,-0.48,-0.34,0.63
11.427,0.12,-0.41,-0.12,0.44
11.437,0.29,-0.08,0.05,0.31
11.447,-0.11,0.06,-0.18,0.22
11.457,0.17,-0.02,-0.22,0.28
11.467,0.35,0.21,0.31,0.52
11.478,0.45,0.31,-0.55,0.77
11.488,-0.22,0.26,0.54,0.64
11.498,-0.06,-0.05,-0.73,0.73
11.508,-0.14,-0.60,0.75,0.97
11.518,-0.66,0.61,-0.43,1.00
11.528,-0.31,0.36,0.48,0.68
11.538,0.13,-0.07,-0.55,0.57
11.548,-0.01,-0.27,-0.24,0.37
11.558,0.39,-0.47,-0.07,0.61
11.568,-0.09,-0.19,-0.33,0.39
11.579,0.02,0.02,0.33,0.34
11.589,0.51,0.16,-0.30,0.61
11.599,0.12,0.13,0.22,0.28
11.609,0.42,0.35,-0.32,0.64
11.619,-0.05,0.21,0.12,0.24
11.629,-0.21,-0.12,-0.04,0.24
11.639,-0.40,-0.25,0.12,0.48
11.649,-0.48,0.17,0.33,0.61
11.659,-0.20,0.27,-0.50,0.60
11.669,0.10,0.21,0.12,0.26
11.679,0.10,-0.14,-0.15,0.23
11.689,0.20,-0.43,-0.50,0.69
11.699,0.07,-0.12,0.31,0.34
11.709,0.17,-0.18,-0.24,0.34
11.720,0.14,0.24,-0.22,0.36
11.730,0.26,0.36,0.23,0.50
11.740,0.48,0.05,-0.12,0.50
11.750,-0.02,-0.04,-0.36,0.36
11.760,-0.06,-0.09,0.21,0.24
11.770,-0.58,-0.03,0.08,0.59
11.780,-0.52,0.21,0.27,0.63
11.790,-0.17,0.43,-0.45,0.65
11.800,0.29,0.16,0.17,0.37
11.810,0.03,-0.26,-0.07,0.27
11.821,-0.03,-0.40,-0.53,0.67
11.831,0.14,-0.44,0.30,0.55
11.841,0.25,0.04,-0.73,0.77
11.851,0.19,0.30,0.73,0.81
11.861,0.54,0.38,-0.69,0.95
11.871,0.16,0.08,0.07,0.19
11.881,-0.10,0.04,0.08,0.14
11.891,-0.19,-0.27,-0.42,0.54
11.901,-0.53,0.07,0.72,0.90
11.911,-0.24,0.29,0.07,0.38
11.921,-0.08,0.24,-0.66,0.71
11.931,-0.08,-0.02,0.51,0.52
11.942,0.10,-0.03,-0.28,0.30
11.952,0.18,-0.36,-0.38,0.56
11.962,0.09,-0.39,0.32,0.51
11.972,0.16,-0.06,-0.69,0.71
11.982,0.15,0.24,0.50,0.58
11.992,0.48,0.50,-0.27,0.74
12.002,0.09,0.10,0.11,0.18
12.012,-0.09,0.00,-0.19,0.21
12.022,-0.11,-0.20,-0.00,0.23
12.032,-0.34,0.05,0.35,0.49
12.042,-0.65,0.36,0.22,0.78
12.052,0.07,0.26,-0.80,0.85
12.063,0.17,-0.12,0.51,0.56
12.073,0.01,-0.19,-0.21,0.28
12.083,-0.07,-0.45,-0.04,0.45
12.093,0.06,-0.37,-0.46,0.59
12.103,-0.01,0.12,-0.01,0.12
12.113,0.49,0.17,0.12,0.53
12.123,0.39,0.37,-0.15,0.56
12.133,0.28,0.33,-0.08,0.44
12.143,-0.11,-0.07,-0.08,0.15
12.153,-0.23,-0.01,-0.32,0.39
12.163,-0.35,-0.06,0.74,0.82
12.173,-0.32,0.23,-0.29,0.49
12.184,-0.47,0.33,-0.27,0.63
12.194,0.29,-0.10,0.10,0.32
12.204,0.07,-0.25,-0.43,0.50
12.214,0.09,-0.27,0.10,0.30
12.224,0.18,-0.17,-0.28,0.37
12.234,0.03,-0.27,0.08,0.28
12.244,0.23,0.11,-0.23,0.35
12.254,0.71,0.30,-0.13,0.78
12.264,0.18,0.41,0.02,0.45
12.274,-0.01,0.13,-0.10,0.16
12.284,-0.57,0.22,-0.34,0.69
12.295,-0.38,-0.19,0.70,0.82
12.305,-0.33,0.15,-0.47,0.60
12.315,-0.12,0.28,-0.03,0.31
12.325,0.15,-0.22,0.21,0.34
12.335,0.08,-0.30,-0.60,0.68
12.345,0.02,-0.27,0.17,0.32
12.355,0.27,-0.08,-0.48,0.56
12.365,-0.17,-0.23,0.44,0.52
12.375,0.44,0.04,-0.28,0.52
12.385,0.68,0.32,-0.53,0.92
12.395,-0.13,0.15,0.60,0.63
12.406,0.19,0.25,-0.51,0.60
12.415,-0.47,0.46,-0.06,0.66
12.426,-0.63,0.23,0.95,1.17
12.436,-0.52,0.01,-0.75,0.91
12.446,-0.23,-0.24,0.16,0.37
12.456,0.61,-0.15,-0.40,0.75
12.466,0.14,-0.36,-0.09,0.40
12.476,-0.00,-0.28,-0.16,0.32
12.486,-0.02,-0.27,0.23,0.35
12.496,-0.01,0.01,-0.27,0.27
12.506,0.24,0.18,-0.81,0.86
12.516,0.66,0.19,0.72,1.00
12.527,0.42,0.09,-0.90,1.00
12.537,-0.38,0.23,0.72,0.85
12.547,-0.04,0.34,-0.42,0.54
12.557,-0.97,0.46,0.44,1.16
12.567,-0.21,0.01,0.04,0.22
12.577,-0.14,-0.07,-0.29,0.33
12.587,0.31,-0.27,-0.07,0.42
12.597,0.27,-0.54,-0.02,0.61
12.607,-0.07,-0.39,-0.10,0.41
12.617,-0.18,-0.18,0.19,0.31
12.627,0.05,0.17,-0.60,0.62
12.637,0.49,0.21,-0.07,0.54
12.648,0.62,0.20,-0.01,0.66
12.658,0.33,0.25,-0.63,0.75
12.668,-0.28,-0.28,1.23,1.29
12.678,-0.42,0.61,-1.29,1.49
12.688,-0.48,-0.11,1.13,1.23
12.698,-0.30,0.16,-0.30,0.45
12.708,-0.26,0.07,-0.27,0.38
12.718,0.23,-0.23,0.10,0.33
12.728,0.08,-0.26,-0.21,0.35
12.738,0.09,-0.48,0.07,0.50
12.748,-0.21,-0.20,-0.16,0.33
12.759,0.48,-0.08,-0.37,0.61
12.769,0.42,0.41,-0.34,0.68
12.779,0.67,0.43,0.04,0.79
12.789,0.00,0.08,-0.07,0.11
12.799,-0.15,-0.02,0.02,0.15
12.809,-0.54,0.33,0.10,0.64
12.819,-0.45,0.15,-0.07,0.48
12.829,-0.26,-0.09,0.32,0.42
12.839,0.01,0.22,-0.33,0.40
12.849,0.25,-0.24,-0.01,0.35
12.859,0.14,-0.38,-0.21,0.45
12.869,-0.01,-0.45,0.16,0.48
12.879,-0.04,-0.30,-0.12,0.32
12.890,-0.02,0.21,-0.62,0.66
12.900,0.82,0.42,-0.06,0.92
12.910,0.48,0.39,-0.43,0.76
12.920,0.25,-0.19,0.24,0.40
12.930,-0.47,0.20,0.14,0.53
12.940,-0.44,0.41,0.05,0.60
12.950,-0.48,0.15,-0.00,0.50
12.960,-0.44,-0.00,0.18,0.48
12.970,0.11,-0.09,-0.28,0.31
12.980,0.18,-0.25,-0.15,0.34
12.991,0.17,-0.18,-0.17,0.30
13.001,0.10,-0.35,0.31,0.48
13.011,0.10,-0.37,-0.05,0.39
13.021,0.21,0.10,-1.17,1.19
13.031,0.59,0.41,1.02,1.25
13.041,0.44,0.52,-1.47,1.62
13.051,-0.34,-0.06,1.55,1.59
13.061,-0.35,0.34,-0.49,0.69
13.071,-0.50,0.08,-0.21,0.55
13.081,-0.21,-0.04,0.83,0.85
13.091,-0.22,0.17,-0.27,0.39
13.101,0.24,-0.20,-0.73,0.80
13.111,-0.05,-0.40,0.87,0.96
13.122,0.23,-0.15,-0.99,1.02
13.132,-0.37,-0.30,0.69,0.84
13.142,0.44,-0.26,-0.36,0.62
13.152,0.13,0.21,-0.90,0.93
13.162,0.68,0.39,0.29,0.83
13.172,0.30,0.36,-0.32,0.57
13.182,-0.23,0.01,0.54,0.59
13.192,-0.33,0.30,-0.48,0.65
13.202,-0.72,0.14,0.71,1.02
13.212,-0.25,0.11,-0.20,0.34
13.222,-0.12,-0.06,-0.06,0.15
13.232,0.35,-0.27,-0.19,0.48
13.243,0.20,-0.44,-0.04,0.49
13.253,-0.15,-0.04,-0.27,0.31
13.263,-0.02,-0.05,-0.08,0.09
13.273,0.08,-0.21,-0.08,0.24
13.283,0.54,-0.08,-0.10,0.55
13.293,0.47,0.44,-0.33,0.72
13.303,0.13,0.27,0.57,0.64
13.313,-0.30,0.40,-0.48,0.70
13.323,-0.50,-0.11,0.25,0.57
13.333,-0.14,-0.01,0.04,0.15
13.343,-0.58,0.29,0.19,0.68
13.353,0.19,0.13,-0.30,0.37
13.364,0.24,-0.48,0.08,0.54
13.374,0.01,-0.24,-0.47,0.53
13.384,0.03,-0.19,-0.00,0.19
13.394,0.16,-0.02,-0.57,0.59
13.404,-0.11,-0.12,0.69,0.71
13.414,0.57,0.19,-0.54,0.80
13.424,0.06,0.34,0.31,0.47
13.434,0.45,0.29,-0.48,0.72
13.444,-0.23,0.09,0.11,0.28
13.454,-0.37,-0.04,-0.16,0.41
13.464,-0.34,-0.09,0.39,0.53
13.475,-0.41,0.56,-0.04,0.70
13.485,0.01,0.16,-0.27,0.31
13.495,0.19,-0.50,0.14,0.55
13.505,0.17,-0.30,-0.50,0.61
13.515,-0.11,-0.27,0.26,0.39
13.525,0.17,-0.01,-0.52,0.55
13.535,0.24,0.02,-0.25,0.35
13.545,0.24,0.17,0.42,0.51
13.555,0.68,0.13,-0.31,0.75
13.565,-0.18,0.23,-0.20,0.35
13.575,-0.13,0.14,0.12,0.23
13.585,-0.47,-0.17,0.09,0.50
13.596,-0.21,0.12,-0.08,0.25
13.606,-0.44,0.37,0.11,0.58
13.616,0.21,0.17,-0.29,0.39
13.626,0.03,-0.20,-0.14,0.25
13.636,0.25,-0.56,-0.14,0.63
13.646,-0.13,-0.40,-0.16,0.44
13.656,0.17,0.06,-0.18,0.26
13.666,-0.08,0.09,0.11,0.17
13.676,0.66,0.28,-0.59,0.92
13.686,0.45,0.23,0.63,0.80
13.696,-0.08,0.15,-0.32,0.36
13.707,-0.12,0.07,-0.31,0.34
13.717,-0.35,-0.36,0.83,0.97
13.727,-0.38,0.08,-0.60,0.71
13.737,-0.54,0.43,0.31,0.76
13.747,0.10,0.27,-0.04,0.29
13.757,-0.05,-0.10,-0.30,0.32
13.767,0.36,-0.72,-0.00,0.81
13.777,0.08,-0.13,-0.67,0.69
13.787,0.23,-0.26,0.67,0.76
13.797,0.14,0.41,-0.86,0.96
13.807,0.45,0.07,0.72,0.85
13.817,0.28,0.23,-0.64,0.74
13.828,-0.40,0.22,0.14,0.48
13.838,-0.06,-0.08,0.10,0.14
13.848,-0.25,-0.14,0.06,0.29
13.858,-0.25,0.01,0.33,0.41
13.868,-0.18,0.28,-0.35,0.48
13.878,-0.03,0.03,-0.05,0.07
13.888,-0.07,0.03,-0.24,0.25
13.898,0.03,-0.36,-0.11,0.38
13.908,0.19,-0.30,-0.36,0.50
13.918,0.08,-0.27,0.45,0.54
13.928,0.44,0.43,-0.90,1.09
13.938,0.33,0.19,1.14,1.20
13.949,0.33,0.34,-1.06,1.17
13.959,-0.20,-0.12,0.26,0.34
13.969,0.07,-0.30,-0.23,0.38
13.979,-0.68,0.16,0.17,0.72
13.989,-0.07,0.09,0.26,0.28
13.999,-0.26,0.19,-0.14,0.36
14.009,-0.08,0.19,-0.16,0.26
14.019,0.09,0.02,0.03,0.10
14.029,0.07,-0.32,-0.09,0.34
14.039,0.22,-0.33,-0.50,0.64
14.049,0.32,-0.34,0.31,0.56
14.060,-0.06,0.18,-0.28,0.34
14.070,0.34,0.57,-0.15,0.68
14.080,0.39,0.23,0.25,0.52
14.090,-0.17,0.06,-0.49,0.52
14.100,-0.22,-0.36,0.26,0.49
14.110,-0.42,-0.04,0.05,0.43
14.120,-0.20,0.22,0.02,0.30
14.130,-0.24,0.22,0.19,0.38
14.140,0.37,0.15,-0.37,0.55
14.150,-0.39,-0.30,0.16,0.52
14.160,0.23,-0.26,-0.71,0.79
14.170,-0.03,-0.12,0.50,0.52
14.181,0.38,-0.17,-0.48,0.63
14.191,0.12,0.08,0.26,0.29
14.201,0.80,0.23,-0.03,0.83
14.211,-0.16,0.53,-0.35,0.66
14.221,0.09,-0.16,-0.32,0.37
14.231,-0.11,-0.36,0.13,0.40
14.241,-0.39,-0.14,0.00,0.42
14.251,-0.23,0.31,0.16,0.41
14.261,-0.40,0.52,0.02,0.66
14.271,0.09,-0.02,-0.19,0.21
14.281,-0.19,-0.28,-0.36,0.49
14.292,0.20,-0.37,0.05,0.42
14.302,0.35,0.03,-0.51,0.62
14.312,0.04,0.01,0.57,0.58
14.322,0.20,-0.09,-1.10,1.12
14.332,0.21,0.08,1.09,1.11
14.342,0.62,0.32,-0.74,1.02
14.352,-0.19,0.25,0.07,0.32
14.362,-0.13,-0.39,0.37,0.55
14.372,-0.16,-0.25,-0.69,0.75
14.382,-0.75,0.17,0.63,0.99
14.392,-0.27,0.80,-0.02,0.85
14.402,-0.24,0.25,-0.12,0.36
14.412,0.21,-0.41,-0.48,0.66
14.423,0.27,-0.68,0.47,0.87
14.433,0.17,-0.17,-0.94,0.97
14.443,0.10,-0.23,0.41,0.48
14.453,0.24,0.15,-0.12,0.31
14.463,0.26,0.29,0.02,0.39
14.473,0.18,0.26,-0.13,0.34
14.483,0.43,0.21,-0.16,0.50
14.493,-0.22,-0.32,0.05,0.40
14.503,-0.29,-0.22,-0.09,0.37
14.513,-0.48,0.27,0.58,0.80
14.523,-0.71,0.70,-0.47,1.10
14.533,-0.06,0.45,-0.00,0.45
14.544,0.41,-0.42,-0.20,0.62
14.554,-0.09,-0.57,-0.24,0.63
14.564,0.11,-0.31,0.06,0.33
14.574,0.45,-0.26,-0.23,0.57
14.584,0.08,0.01,0.23,0.24
14.594,0.44,0.28,-0.29,0.60
14.604,0.22,0.24,0.18,0.37
14.614,0.41,0.29,-0.40,0.64
14.624,-0.16,-0.11,0.21,0.29
14.634,-0.55,-0.18,0.02,0.58
14.645,-0.51,0.22,0.11,0.57
14.655,-0.50,0.58,0.27,0.81
14.665,-0.05,0.37,-0.70,0.79
14.675,0.22,-0.41,0.39,0.61
14.685,0.34,-0.61,-0.67,0.97
14.695,-0.20,-0.60,0.15,0.65
14.705,-0.03,-0.02,-0.27,0.27
14.715,0.41,0.25,0.19,0.51
14.725,0.50,-0.02,0.16,0.53
14.735,0.31,0.18,-0.49,0.61
14.745,0.24,0.06,-0.08,0.26
14.755,-0.15,-0.02,0.06,0.16
14.765,-0.45,-0.28,0.07,0.54
14.776,-0.52,0.28,0.03,0.60
14.786,-0.47,0.57,0.06,0.74
14.796,-0.17,0.44,-0.23,0.52
14.806,0.02,-0.16,-0.20,0.25
14.816,0.09,-0.53,-0.09,0.54
14.826,0.23,-0.49,-0.33,0.63
14.836,0.29,-0.44,0.15,0.54
14.846,0.43,0.11,0.12,0.46
14.856,0.28,0.33,-0.27,0.51
14.866,0.46,0.05,0.04,0.47
14.876,-0.10,0.15,-0.26,0.32
14.887,-0.04,-0.12,0.24,0.27
14.897,-0.43,0.33,-0.23,0.59
14.907,-0.73,1.52,0.09,1.69
14.917,0.26,2.53,-0.59,2.61
14.927,-0.07,3.52,0.50,3.55
14.937,-0.08,3.02,-0.28,3.03
14.947,0.05,0.74,0.23,0.78
14.957,-0.13,-0.44,-0.48,0.66
14.967,0.10,-0.88,0.18,0.90
14.977,0.64,-0.99,0.01,1.18
14.987,0.10,-0.35,-0.32,0.48
14.998,-0.43,0.16,0.19,0.50
15.008,-0.41,0.35,-0.13,0.56
15.018,0.15,0.41,-0.17,0.47
15.028,0.41,0.33,0.06,0.53
15.038,-0.04,0.04,-0.10,0.11
15.048,-0.10,-0.13,-0.16,0.22
15.058,-0.09,-0.16,0.10,0.21
15.068,0.12,-0.06,-0.24,0.27
15.078,0.07,0.12,0.05,0.15
15.088,-0.11,0.14,-0.11,0.20
15.098,0.02,-0.06,-0.11,0.13
15.109,0.07,-0.06,-0.02,0.09
15.119,0.02,0.01,-0.11,0.11
15.129,0.02,0.00,-0.01,0.02
15.139,-0.03,0.04,-0.09,0.10
15.149,0.03,0.03,-0.05,0.06
15.159,0.03,-0.05,-0.04,0.07
15.169,-0.05,-0.01,-0.09,0.10
15.179,0.03,0.03,-0.02,0.05
15.189,0.03,0.03,-0.11,0.11
15.199,-0.01,-0.02,-0.04,0.05
15.209,0.01,-0.03,-0.02,0.04
15.219,0.00,0.04,-0.10,0.11
15.229,0.02,0.04,-0.08,0.09
15.240,0.00,-0.03,-0.05,0.06
15.250,0.02,0.00,-0.04,0.05
15.260,0.02,0.05,-0.09,0.10
15.270,-0.01,-0.00,-0.06,0.06
15.280,-0.03,-0.01,-0.07,0.08
15.290,0.03,0.01,-0.07,0.08
15.300,0.01,0.02,-0.06,0.06
15.310,-0.03,0.01,-0.06,0.07
15.320,0.01,0.02,-0.06,0.07
15.330,0.03,0.02,-0.08,0.08
15.340,0.01,-0.02,-0.06,0.07
15.350,-0.00,0.01,-0.07,0.07
15.361,0.02,0.02,-0.05,0.06
15.371,0.02,-0.01,-0.03,0.03
15.381,0.02,-0.02,-0.08,0.08
15.391,-0.00,0.02,-0.06,0.06
15.401,0.02,0.02,-0.06,0.07
15.411,0.00,0.01,-0.05,0.05
15.421,-0.01,-0.02,-0.06,0.06
15.431,0.02,0.00,-0.06,0.07
15.441,-0.01,0.03,-0.07,0.07
15.451,0.00,-0.00,-0.06,0.06
15.462,-0.00,-0.02,-0.06,0.06
15.472,0.01,0.00,-0.06,0.06
15.482,0.02,0.00,-0.05,0.06
15.492,0.00,0.01,-0.07,0.07
15.502,0.00,-0.00,-0.06,0.06
15.512,0.02,-0.01,-0.07,0.07
15.522,-0.01,0.00,-0.07,0.07
15.532,0.01,-0.00,-0.06,0.06
15.542,0.02,0.00,-0.05,0.06
15.552,-0.02,-0.01,-0.06,0.07
15.562,0.01,-0.00,-0.07,0.07
15.572,0.01,0.02,-0.06,0.06
15.582,0.00,0.01,-0.07,0.07
15.593,0.01,-0.01,-0.07,0.07
15.602,-0.02,0.03,-0.08,0.09
15.613,0.03,0.01,-0.06,0.07
15.623,0.02,0.00,-0.07,0.07
15.633,-0.01,-0.01,-0.05,0.05
15.643,0.03,-0.00,-0.06,0.06
15.653,0.01,0.02,-0.08,0.08
15.663,0.00,0.00,-0.03,0.03
15.673,0.13,-0.01,-0.32,0.34
15.683,-0.03,0.00,0.29,0.29
15.693,-0.15,0.02,-0.36,0.39
15.703,-0.03,-0.12,0.11,0.16
15.714,0.07,0.19,-0.03,0.21
15.724,0.10,0.01,-0.27,0.29
15.734,-0.03,-0.11,0.17,0.20
