time,ax,ay,az,atotal
0.000,0.14,0.06,-1.21,1.22
0.010,-0.80,-0.15,1.37,1.60
0.020,-0.63,0.08,-0.73,0.97
0.030,-0.42,0.21,0.28,0.54
0.040,0.11,0.38,-0.09,0.40
0.050,-0.20,-0.17,0.83,0.87
0.060,0.27,-0.20,-0.89,0.95
0.071,0.20,-0.80,-0.33,0.89
0.081,0.07,-0.30,-0.27,0.41
0.091,0.05,0.10,0.38,0.40
0.101,0.48,0.21,-0.90,1.04
0.111,0.14,0.36,0.92,0.99
0.121,0.41,0.14,-0.43,0.61
0.131,-0.37,-0.01,-0.12,0.39
0.141,-0.18,-0.33,-0.03,0.37
0.151,-0.32,-0.27,0.37,0.56
0.161,-0.46,0.56,-0.13,0.73
0.171,-0.29,0.39,0.26,0.55
0.182,0.32,-0.13,-0.51,0.61
0.192,0.01,-0.52,0.29,0.59
0.202,-0.07,-0.20,-0.55,0.59
0.212,0.02,-0.39,0.11,0.40
0.222,0.06,-0.01,-0.29,0.30
0.232,0.46,0.07,0.31,0.56
0.242,0.29,0.46,-0.30,0.62
0.252,0.24,0.30,-0.31,0.49
0.262,0.11,-0.21,-0.12,0.27
0.272,-1.01,0.06,0.55,1.15
0.282,0.06,-0.10,0.94,0.94
0.292,-0.66,0.13,-1.25,1.42
0.303,-0.22,0.18,-0.09,0.30
0.312,0.49,-0.15,0.72,0.88
0.323,0.30,-0.45,-0.99,1.13
0.333,-0.26,-0.25,0.25,0.44
0.343,0.16,-0.11,-0.27,0.33
0.353,0.11,-0.05,-0.41,0.42
0.363,0.40,0.01,0.62,0.74
0.373,0.35,0.39,-0.57,0.77
0.383,0.08,0.28,0.27,0.39
0.393,-0.13,-0.12,-0.42,0.45
0.403,-0.27,-0.42,0.27,0.57
0.413,-0.51,0.14,0.20,0.57
0.423,-0.51,0.55,-0.23,0.79
0.434,-0.02,0.37,0.19,0.41
0.444,0.20,-0.38,0.03,0.43
0.454,-0.14,-0.44,-0.73,0.87
0.464,0.17,-0.41,0.60,0.75
0.474,0.10,-0.23,-0.54,0.60
0.484,0.10,0.01,-0.15,0.18
0.494,0.41,0.20,0.67,0.81
0.504,0.29,0.35,-0.48,0.66
0.514,-0.08,0.37,-0.24,0.45
0.524,0.09,-0.19,0.39,0.44
0.535,-0.36,-0.29,-0.29,0.55
0.545,-0.81,0.09,0.28,0.86
0.555,-0.25,0.45,-0.04,0.52
0.565,0.20,0.12,-0.05,0.24
0.575,-0.31,-0.22,-0.34,0.51
0.585,0.65,-0.77,-0.46,1.11
0.595,-0.13,-0.39,0.48,0.63
0.605,0.12,0.07,-0.76,0.77
0.615,0.05,0.20,0.23,0.31
0.625,0.27,0.06,0.54,0.61
0.635,0.41,0.33,-1.07,1.19
0.646,-0.14,0.07,0.43,0.46
0.655,-0.09,0.00,-0.18,0.20
0.666,-0.25,-0.37,0.15,0.47
0.676,-0.59,-0.01,0.20,0.63
0.686,-0.17,0.38,-0.40,0.58
0.696,0.11,0.21,0.19,0.30
0.706,0.02,-0.27,-0.28,0.39
0.716,0.05,-0.38,-0.44,0.58
0.726,0.25,-0.50,0.21,0.60
0.736,-0.10,0.05,-0.27,0.29
0.746,0.29,0.08,0.07,0.31
0.756,0.36,0.21,0.01,0.42
0.767,0.26,0.25,-0.12,0.38
0.777,-0.08,0.18,-0.14,0.24
0.787,-0.06,-0.17,0.09,0.21
0.797,-0.60,-0.36,0.29,0.76
0.807,-0.38,0.13,-0.05,0.40
0.817,-0.17,0.36,0.01,0.40
0.827,-0.09,0.13,-0.29,0.33
0.837,0.04,-0.23,-0.14,0.27
0.847,0.21,-0.53,-0.06,0.57
0.857,-0.00,-0.36,-0.01,0.36
0.867,0.48,-0.03,-0.12,0.49
0.877,0.05,0.47,-0.42,0.63
0.888,0.33,0.11,0.59,0.68
0.898,0.19,0.17,-0.27,0.37
0.908,-0.27,0.13,-0.51,0.59
0.918,-0.10,-0.19,0.36,0.42
0.928,-0.14,-0.04,-0.00,0.15
0.938,-0.44,-0.02,0.36,0.57
0.948,-0.20,0.23,-0.48,0.57
0.958,-0.10,0.11,0.08,0.17
0.968,-0.01,-0.17,-0.25,0.31
0.978,0.12,-0.28,-0.33,0.45
0.988,0.19,-0.51,0.50,0.74
0.998,-0.12,-0.16,-0.32,0.38
1.009,0.58,0.35,-0.56,0.88
1.019,0.34,0.60,-0.04,0.69
1.029,0.25,0.14,0.54,0.61
1.039,-0.07,-0.07,-0.28,0.30
1.049,-0.74,-0.33,-0.17,0.82
1.059,-0.24,-0.11,0.20,0.33
1.069,-0.29,0.15,0.23,0.41
1.079,-0.16,0.26,-0.26,0.40
1.089,-0.05,-0.15,0.02,0.16
1.099,0.24,-0.27,-0.29,0.47
1.109,-0.01,-0.23,-0.02,0.23
1.119,0.05,-0.48,0.24,0.54
1.130,0.02,-0.17,-0.45,0.48
1.140,0.44,0.24,-0.10,0.51
1.150,0.53,0.54,-0.42,0.87
1.160,0.16,0.16,0.52,0.57
1.170,-0.12,0.35,-0.34,0.51
1.180,-0.62,-0.33,0.15,0.72
1.190,-0.26,-0.28,0.02,0.38
1.200,-0.41,0.15,0.20,0.48
1.210,0.09,0.28,-0.34,0.45
1.220,-0.17,-0.11,0.38,0.43
1.230,0.20,-0.37,-0.53,0.67
1.241,-0.10,-0.34,0.06,0.36
1.251,0.02,-0.27,-0.04,0.28
1.260,0.26,-0.15,0.03,0.30
1.271,0.26,0.19,-0.51,0.60
1.281,0.44,0.43,-0.12,0.62
1.291,0.56,0.17,0.00,0.58
1.301,-0.33,0.30,0.34,0.56
1.311,-0.36,-0.26,-0.18,0.48
1.321,-0.45,-0.17,-0.00,0.48
1.331,-0.48,0.02,0.59,0.76
1.341,-0.08,0.26,-0.69,0.74
1.352,0.06,-0.32,0.54,0.63
1.362,0.11,-0.21,-0.65,0.70
1.372,-0.34,-0.25,0.57,0.71
1.382,0.17,-0.34,-0.22,0.44
1.392,0.24,-0.34,-0.57,0.70
1.402,0.33,0.12,0.36,0.50
1.412,0.75,0.36,-0.28,0.87
1.422,0.52,0.30,-0.93,1.11
1.432,-0.12,-0.09,0.59,0.61
1.442,-0.64,-0.07,0.66,0.93
1.452,-1.05,0.72,-0.74,1.47
1.462,-0.53,0.45,0.37,0.79
1.472,0.16,-0.19,0.52,0.58
1.483,-0.06,-0.69,-0.20,0.72
1.493,0.44,-0.57,-1.07,1.29
1.503,0.02,-0.46,1.55,1.62
1.513,-0.49,0.23,-1.29,1.40
1.523,0.56,-0.04,-0.96,1.11
1.533,0.26,0.14,1.56,1.59
1.543,0.57,0.48,-1.08,1.31
1.553,0.50,-0.35,-0.97,1.14
1.563,-0.20,0.25,2.00,2.02
1.573,-0.30,0.21,-0.82,0.90
1.583,-1.10,0.14,0.15,1.12
1.594,-0.33,0.43,0.42,0.69
1.604,-0.07,0.10,-0.01,0.12
1.614,0.23,-0.47,-0.22,0.57
1.624,0.24,-0.62,-0.29,0.73
1.634,-0.03,-0.47,0.34,0.57
1.644,-0.15,-0.12,0.05,0.19
1.654,0.00,-0.08,-0.28,0.29
1.664,0.34,0.18,-0.64,0.75
1.674,0.67,0.35,0.16,0.78
1.684,0.52,0.15,-0.11,0.55
1.694,-0.07,-0.18,0.09,0.21
1.704,-0.53,0.04,-0.16,0.56
1.715,-0.81,0.48,0.43,1.04
1.725,-0.33,0.24,0.04,0.41
1.735,-0.10,-0.09,-0.08,0.16
1.745,0.24,-0.12,-0.55,0.61
1.755,0.18,-0.65,0.69,0.97
1.765,-0.00,-0.51,-0.65,0.82
1.775,-0.19,-0.27,0.19,0.38
1.785,0.05,0.13,-0.02,0.14
1.795,0.53,0.25,-0.76,0.96
1.805,0.50,0.21,0.08,0.55
1.815,0.48,0.03,-0.14,0.50
1.825,-0.15,-0.39,0.71,0.82
1.836,-0.69,0.40,-0.64,1.02
1.846,-0.54,0.45,0.51,0.87
1.856,-0.30,0.08,0.22,0.38
1.866,-0.35,-0.10,-0.31,0.48
1.876,0.44,-0.39,-0.30,0.66
1.886,0.02,-0.30,0.25,0.39
1.896,0.08,-0.51,0.07,0.52
1.906,-0.13,-0.34,-0.45,0.58
1.916,0.10,0.06,0.10,0.16
1.926,0.49,0.44,-0.53,0.85
1.936,0.76,0.19,0.10,0.79
1.946,0.23,-0.16,0.03,0.28
1.957,-0.59,0.29,-0.20,0.68
1.967,-0.58,0.26,0.39,0.75
1.977,-0.49,0.37,-0.14,0.63
1.987,-0.01,-0.27,0.40,0.48
1.997,-0.07,-0.21,-0.50,0.54
2.007,0.15,-0.28,-0.10,0.33
2.017,0.18,-0.25,-0.17,0.35
2.027,-0.09,-0.27,0.25,0.37
2.037,-0.01,-0.45,-0.10,0.46
2.047,0.12,0.03,-0.52,0.54
2.057,0.74,0.52,-0.10,0.91
2.068,0.60,0.06,0.07,0.61
2.078,-0.49,0.07,0.44,0.66
2.088,0.13,0.25,-0.84,0.89
2.098,-0.67,0.22,0.94,1.18
2.108,-0.27,0.00,-0.39,0.47
2.118,-0.47,-0.24,0.25,0.58
2.128,0.20,-0.08,-0.30,0.37
2.138,-0.07,-0.15,-0.16,0.23
2.148,0.20,-0.14,-0.12,0.27
2.158,0.02,-0.33,0.38,0.51
2.169,-0.02,-0.30,-0.49,0.58
2.178,0.35,-0.26,-0.00,0.43
2.189,0.50,0.47,-0.25,0.73
2.199,0.57,0.17,-0.23,0.63
2.209,-0.27,0.16,0.52,0.61
2.219,-0.31,0.09,-0.35,0.48
2.229,-0.73,0.29,0.12,0.80
2.239,-0.47,0.17,0.58,0.76
2.249,0.15,-0.12,-0.60,0.63
2.259,0.03,-0.40,0.21,0.45
2.269,0.21,-0.38,-0.25,0.50
2.279,-0.12,-0.14,-0.19,0.27
2.289,0.06,-0.09,-0.00,0.11
2.300,-0.03,-0.11,0.04,0.12
2.310,0.37,0.01,-0.34,0.50
2.320,0.61,0.39,-0.05,0.73
2.330,0.03,0.10,0.33,0.35
2.340,-0.18,0.20,-0.43,0.51
2.350,-0.55,-0.01,0.10,0.56
2.360,-0.16,-0.20,0.44,0.51
2.370,-0.31,0.19,-0.17,0.40
2.380,-0.01,0.15,-0.12,0.19
2.390,0.10,-0.22,-0.11,0.26
2.400,0.07,-0.41,-0.18,0.46
2.410,-0.21,-0.18,0.09,0.29
2.421,0.12,-0.05,-0.38,0.41
2.431,0.23,-0.36,0.15,0.45
2.441,0.24,0.09,-0.29,0.39
2.451,0.45,0.31,0.09,0.55
2.461,0.18,0.39,0.11,0.44
2.471,-0.16,0.25,-0.24,0.38
2.481,-0.49,-0.23,0.29,0.62
2.491,-0.27,-0.16,0.06,0.32
2.501,-0.69,0.18,0.38,0.81
2.511,-0.04,0.33,-0.60,0.69
2.521,0.18,-0.34,0.31,0.49
2.531,0.29,-0.42,-0.69,0.86
2.542,-0.14,-0.24,0.48,0.56
2.552,0.46,-0.25,-0.28,0.60
2.562,-0.25,-0.04,-0.56,0.61
2.572,0.30,0.13,0.67,0.75
2.582,0.40,0.45,-0.23,0.65
2.592,-0.01,0.28,-0.11,0.30
2.602,-0.12,0.19,-0.15,0.27
2.612,-0.17,-0.42,0.18,0.49
2.622,-0.56,-0.05,0.30,0.63
2.632,-0.41,0.41,-0.26,0.64
2.642,-0.22,0.24,-0.01,0.32
2.653,0.32,-0.43,-0.00,0.53
2.663,0.09,-0.54,-0.32,0.63
2.673,0.03,-0.36,-0.15,0.39
2.683,0.03,-0.08,-0.11,0.14
2.693,0.19,0.05,-0.00,0.20
2.703,0.35,0.09,0.18,0.41
2.713,0.28,0.37,-0.41,0.62
2.723,-0.01,0.31,0.35,0.47
2.733,-0.07,0.16,-0.56,0.59
2.743,-0.56,-0.39,0.52,0.86
2.753,-0.15,-0.07,-0.04,0.17
2.763,-0.43,0.28,0.09,0.52
2.774,0.07,0.28,-0.43,0.52
2.784,-0.12,-0.12,0.58,0.60
2.794,0.47,-0.53,-0.91,1.15
2.804,-0.21,-0.68,0.27,0.77
2.814,0.18,-0.04,-0.20,0.27
2.824,0.02,0.29,0.01,0.29
2.834,0.56,0.20,0.01,0.59
2.844,0.18,0.27,0.04,0.33
2.854,0.11,0.17,-0.53,0.57
2.864,-0.30,-0.17,0.52,0.62
2.874,-0.32,-0.11,-0.28,0.44
2.885,-0.43,-0.10,0.39,0.59
2.894,-0.15,0.34,-0.31,0.49
2.905,-0.01,0.07,0.01,0.07
2.915,-0.14,-0.03,-0.07,0.16
2.925,0.16,-0.60,-0.04,0.62
2.935,-0.02,-0.37,-0.47,0.59
2.945,0.33,-0.14,0.22,0.42
2.955,0.10,0.35,-0.18,0.41
2.965,0.44,0.23,0.14,0.52
2.975,0.25,0.14,0.03,0.28
2.985,-0.13,0.05,-0.28,0.31
2.996,-0.11,-0.13,-0.33,0.37
3.005,-0.55,-0.11,0.65,0.86
3.016,-0.06,-0.02,-0.13,0.14
3.026,-0.44,0.28,-0.26,0.58
3.036,-0.02,0.22,0.50,0.55
3.046,0.16,-0.21,-0.52,0.58
3.056,-0.30,-0.47,-0.30,0.63
3.066,0.54,-0.49,0.04,0.73
3.076,-0.16,-0.22,0.26,0.38
3.086,0.39,0.25,-0.58,0.74
3.096,0.18,0.49,0.61,0.80
3.107,0.34,0.23,-0.17,0.44
3.117,-0.08,0.07,-0.50,0.51
3.127,-0.06,-0.36,0.31,0.48
3.137,-0.44,0.09,0.08,0.46
3.147,-0.35,0.22,-0.01,0.42
3.157,-0.18,0.05,0.19,0.27
3.167,-0.26,0.06,-0.20,0.33
3.177,0.15,-0.18,-0.18,0.30
3.187,-0.01,-0.27,-0.03,0.27
3.197,0.15,-0.43,-0.26,0.52
3.207,0.31,-0.30,0.05,0.44
3.217,0.26,0.01,0.12,0.28
3.227,0.25,0.41,-0.04,0.48
3.238,0.12,0.32,-0.01,0.34
3.247,-0.03,0.07,-0.39,0.40
3.258,-0.27,-0.15,0.30,0.43
3.268,-0.20,-0.09,-0.16,0.28
3.278,-0.47,0.19,0.31,0.60
3.288,-0.22,0.31,0.11,0.40
3.298,-0.02,-0.11,-0.14,0.18
3.308,0.18,-0.31,-0.38,0.52
3.318,-0.04,-0.23,0.20,0.31
3.328,0.12,-0.31,-0.29,0.44
3.338,-0.10,-0.36,-0.11,0.39
3.348,0.25,-0.03,0.15,0.30
3.358,0.58,0.44,-0.29,0.78
3.369,0.26,0.25,-0.12,0.38
3.379,-0.05,0.20,0.00,0.21
3.389,-0.05,-0.18,-0.05,0.19
3.399,-0.60,-0.09,0.30,0.68
3.409,-0.32,0.17,0.03,0.36
3.419,-0.31,0.34,0.07,0.46
3.429,0.05,-0.08,-0.18,0.21
3.439,0.07,-0.35,-0.08,0.36
3.450,0.03,-0.24,-0.20,0.31
3.459,-0.07,-0.29,0.53,0.61
3.470,0.10,-0.46,-0.59,0.75
3.480,0.31,-0.07,-0.30,0.44
3.490,0.52,0.49,-0.10,0.72
3.500,0.28,0.32,0.35,0.55
3.510,-0.03,0.51,-0.82,0.97
3.520,-0.47,-0.26,0.89,1.04
3.530,-0.34,-0.24,-0.54,0.68
3.540,-0.53,-0.06,0.60,0.81
3.550,0.02,0.35,-0.22,0.41
3.560,-0.02,0.09,-0.12,0.15
3.570,-0.02,-0.30,0.07,0.31
3.580,0.13,-0.49,-0.40,0.65
3.590,-0.11,-0.37,0.13,0.41
3.601,-0.08,-0.03,-0.21,0.23
3.611,0.46,-0.18,0.16,0.52
3.621,0.41,0.54,-0.82,1.07
3.631,0.43,-0.07,0.68,0.81
3.641,-0.00,0.29,-0.45,0.54
3.651,-0.36,0.02,0.38,0.53
3.661,-0.48,-0.10,-0.14,0.51
3.671,-0.11,-0.11,0.11,0.19
3.682,-0.39,0.44,-0.10,0.60
3.691,0.09,0.28,0.14,0.33
3.702,0.04,-0.38,-0.34,0.51
3.712,-0.02,-0.50,-0.29,0.58
3.722,-0.23,-0.30,0.36,0.52
3.732,0.20,-0.28,0.19,0.39
3.742,0.18,-0.08,-1.02,1.04
3.752,0.78,0.27,0.03,0.83
3.762,0.31,0.36,0.29,0.56
3.772,0.02,-0.02,-0.30,0.31
3.782,-0.67,0.28,0.10,0.73
3.792,-0.07,-0.04,0.36,0.37
3.803,-0.48,-0.06,-0.15,0.51
3.812,-0.35,0.16,0.12,0.40
3.822,0.11,0.06,-0.14,0.19
3.833,-0.03,-0.33,-0.22,0.40
3.843,0.26,-0.63,0.08,0.68
3.853,-0.19,-0.29,0.03,0.35
3.863,-0.06,-0.03,-0.20,0.21
3.873,0.44,0.22,-0.57,0.75
3.883,0.74,0.07,0.09,0.75
3.893,0.20,0.26,-0.34,0.48
3.903,-0.08,-0.21,0.69,0.72
3.913,-0.20,0.35,-0.62,0.74
3.923,-0.70,0.26,0.62,0.97
3.933,-0.06,-0.22,0.05,0.24
3.943,-0.59,0.01,-0.32,0.67
3.954,0.35,-0.16,0.06,0.39
3.964,-0.06,-0.14,-0.19,0.25
3.974,0.05,-0.40,0.24,0.47
3.984,0.05,-0.43,0.01,0.43
3.994,0.11,-0.12,-0.77,0.78
4.004,0.19,0.36,0.48,0.63
4.014,0.78,0.28,-0.56,1.00
4.024,0.25,0.06,-0.49,0.55
4.034,-0.31,-0.08,1.22,1.26
4.044,-0.33,0.23,-0.72,0.82
4.055,-0.66,0.12,0.45,0.81
4.064,-0.05,-0.20,0.38,0.43
4.075,-0.31,0.14,-0.57,0.66
4.085,0.29,0.01,0.17,0.33
4.095,0.00,-0.21,-0.03,0.21
4.105,-0.15,-0.51,-0.27,0.60
4.115,-0.00,-0.50,0.23,0.55
4.125,0.11,-0.03,-0.50,0.51
4.135,0.52,0.44,-0.07,0.69
4.145,0.60,0.28,-0.22,0.69
4.155,-0.10,-0.01,0.10,0.14
4.165,-0.23,0.21,-0.01,0.31
4.175,-0.24,-0.15,0.18,0.33
4.186,-0.50,-0.08,0.13,0.53
4.196,-0.27,0.16,-0.04,0.31
4.206,-0.10,0.09,-0.06,0.15
4.216,-0.01,-0.15,-0.12,0.19
4.226,0.12,-0.17,-0.17,0.27
4.236,0.10,-0.44,0.28,0.53
4.246,-0.18,-0.43,-0.11,0.48
4.256,0.33,-0.12,-0.47,0.58
4.266,0.44,0.46,-0.04,0.64
4.276,0.50,0.24,-0.01,0.55
4.286,-0.10,-0.16,0.30,0.35
4.297,-0.34,0.29,-0.46,0.64
4.307,-0.44,0.13,0.47,0.66
4.317,-0.21,0.12,0.15,0.28
4.327,-0.36,0.04,-0.26,0.45
4.337,0.09,-0.31,-0.10,0.34
4.347,-0.03,-0.43,0.03,0.43
4.357,0.10,-0.21,-0.46,0.51
4.367,-0.13,0.00,0.21,0.25
4.377,0.19,-0.32,0.18,0.41
4.387,0.16,-0.08,-0.41,0.45
4.397,0.67,0.38,-0.43,0.89
4.407,0.15,0.22,0.68,0.73
4.418,-0.18,0.35,-0.35,0.52
4.428,-0.14,0.01,-0.22,0.26
4.438,-0.52,-0.16,0.39,0.67
4.448,-0.30,-0.20,0.49,0.61
4.458,-0.34,0.29,-0.85,0.96
4.468,0.15,-0.07,0.45,0.48
4.478,0.17,-0.23,-0.35,0.45
4.488,-0.19,-0.26,-0.17,0.36
4.498,0.17,-0.17,-0.06,0.25
4.508,-0.04,-0.18,-0.10,0.21
4.518,0.48,-0.18,0.14,0.53
4.529,0.29,0.37,-0.37,0.60
4.539,0.16,0.35,0.21,0.43
4.549,0.13,0.14,-0.21,0.28
4.559,-0.57,-0.02,-0.09,0.58
4.569,-0.01,-0.29,0.37,0.47
4.579,-0.59,0.04,0.17,0.61
4.589,-0.30,0.55,-0.57,0.85
4.599,0.22,-0.19,0.46,0.55
4.609,-0.02,-0.41,-0.54,0.68
4.619,0.16,-0.37,-0.28,0.49
4.629,0.01,-0.15,0.55,0.57
4.640,0.07,-0.01,-0.83,0.84
4.650,0.31,0.01,0.50,0.59
4.660,0.42,0.20,-0.03,0.47
4.670,-0.00,0.42,-0.25,0.49
4.680,-0.12,0.29,0.12,0.34
4.690,-0.05,-0.28,-0.07,0.30
4.700,-0.60,-0.15,0.44,0.76
4.710,-0.20,0.17,-0.07,0.27
4.720,-0.37,0.31,-0.19,0.52
4.730,0.14,-0.03,0.03,0.15
4.740,0.02,-0.37,-0.27,0.45
4.750,0.30,-0.60,0.07,0.67
4.760,0.08,-0.17,-0.22,0.29
4.771,-0.03,0.09,0.07,0.11
4.781,0.44,0.02,-0.06,0.44
4.791,0.16,0.23,0.03,0.28
4.801,0.09,0.39,-0.34,0.52
4.811,0.04,0.24,0.22,0.33
4.821,-0.44,-0.25,0.04,0.51
4.831,-0.16,-0.27,0.20,0.37
4.841,-0.51,0.22,-0.13,0.57
4.851,-0.21,0.16,0.23,0.35
4.861,0.19,0.06,-0.64,0.67
4.871,0.25,-0.58,0.03,0.64
4.881,-0.02,-0.54,0.03,0.54
4.892,0.07,0.02,-0.75,0.75
4.902,-0.10,-0.05,0.98,0.99
4.912,0.45,0.21,-1.24,1.34
4.922,0.23,0.11,0.95,0.99
4.932,0.14,0.42,-0.63,0.77
4.942,-0.03,0.07,0.02,0.08
4.952,-0.17,-0.20,0.60,0.66
4.962,-0.57,-0.36,-0.18,0.70
4.972,-0.56,0.32,-0.15,0.66
4.982,0.34,0.21,0.31,0.50
4.993,-0.20,0.11,-0.45,0.50
5.003,0.18,-0.54,-0.01,0.56
5.013,0.26,-0.54,-0.25,0.65
5.023,-0.23,-0.20,0.03,0.31
5.033,0.18,0.09,0.01,0.20
5.043,0.62,0.39,-0.46,0.86
5.053,0.39,0.11,0.24,0.47
5.063,-0.29,0.39,-0.17,0.52
5.073,0.14,-0.25,0.25,0.38
5.083,-0.61,-0.19,-0.21,0.67
5.093,-0.08,-0.16,0.33,0.37
5.104,-0.32,0.35,-0.14,0.50
5.113,-0.21,0.24,0.25,0.41
5.124,0.20,-0.13,-0.50,0.55
5.134,-0.32,-0.34,-0.02,0.47
5.144,0.27,-0.51,-0.18,0.60
5.154,0.23,-0.21,-0.01,0.31
5.164,0.05,0.09,0.12,0.16
5.174,0.50,0.44,-0.63,0.92
5.184,0.60,0.17,0.57,0.84
5.194,-0.45,0.24,-0.14,0.53
5.204,0.00,-0.20,-0.47,0.51
5.214,-0.32,-0.20,0.39,0.55
5.224,-0.18,-0.02,0.22,0.29
5.234,-0.35,0.32,-0.28,0.55
5.244,-0.15,-0.00,0.46,0.48
5.255,-0.01,0.00,-0.69,0.69
5.265,-0.13,-0.15,0.31,0.37
5.275,0.38,-0.45,-0.48,0.76
5.285,-0.14,-0.34,0.05,0.37
5.295,0.46,-0.10,-0.01,0.47
5.305,-0.03,0.31,-0.09,0.32
5.315,0.61,0.26,-0.12,0.67
5.325,0.11,0.09,0.27,0.30
5.335,-0.29,0.11,-0.41,0.52
5.345,-0.23,-0.17,0.26,0.39
5.355,-0.38,0.16,0.05,0.41
5.366,-0.46,0.22,0.11,0.53
5.376,-0.11,-0.03,-0.09,0.14
5.386,0.22,-0.17,-0.47,0.54
5.396,0.11,-0.29,0.32,0.44
5.406,0.09,-0.12,-0.40,0.43
5.416,0.01,-0.34,-0.35,0.49
5.426,0.07,-0.29,0.48,0.57
5.436,0.56,0.33,-0.49,0.81
5.446,0.13,0.38,0.49,0.63
5.456,0.30,0.26,-0.90,0.98
5.467,-0.28,-0.23,0.84,0.92
5.477,-0.23,-0.28,-0.48,0.60
5.487,-0.41,0.15,0.17,0.47
5.497,-0.22,0.35,0.37,0.56
5.507,-0.34,0.28,-0.34,0.55
5.517,-0.08,-0.17,0.05,0.20
5.527,0.22,-0.27,-0.25,0.43
5.537,0.09,-0.24,-0.10,0.27
5.547,0.22,-0.30,-0.18,0.42
5.557,0.30,-0.02,0.21,0.36
5.568,0.94,0.66,0.02,1.15
5.578,0.53,0.60,-0.17,0.82
5.588,0.12,0.55,-0.16,0.58
5.598,0.24,-0.17,0.29,0.41
5.608,0.26,-0.46,0.02,0.53
5.618,-0.63,-0.26,0.38,0.78
5.628,-0.74,0.29,-0.70,1.06
5.638,-0.25,0.21,0.44,0.55
5.648,-0.17,-0.23,0.09,0.30
5.658,0.01,-0.25,-0.73,0.78
5.668,0.28,-0.26,0.10,0.40
5.678,0.38,-0.33,0.17,0.53
5.688,-0.18,-0.11,-0.51,0.55
5.699,-0.38,0.06,-0.06,0.39
5.709,-0.63,0.75,0.47,1.09
5.719,-0.83,1.72,-0.79,2.06
5.729,-0.92,0.95,1.11,1.72
5.739,-0.40,0.36,0.08,0.54
5.749,-0.02,-0.55,-0.24,0.61
5.759,0.36,-0.79,-0.95,1.29
5.769,0.38,-0.59,-0.39,0.80
5.779,-0.14,-0.54,0.87,1.04
5.789,-0.05,-0.49,-0.04,0.50
5.799,0.03,-0.66,-0.10,0.67
5.809,-0.14,-0.57,-0.83,1.02
5.820,0.02,-0.43,-0.09,0.44
5.830,0.84,-0.73,0.55,1.24
5.840,0.20,-0.75,-0.58,0.97
5.850,0.20,-0.09,-0.42,0.47
5.860,-0.28,0.55,2.02,2.12
5.870,-0.52,0.61,-0.68,1.05
5.880,0.08,-0.38,-0.32,0.50
5.890,-0.28,-0.49,-0.40,0.69
5.900,0.52,-0.13,-0.07,0.54
5.910,1.44,1.23,-0.45,1.95
5.920,0.44,0.11,0.28,0.53
5.930,0.04,-0.05,-0.44,0.44
5.941,0.18,0.24,-0.77,0.83
5.951,-0.31,-0.44,0.37,0.65
5.961,-0.02,-0.49,0.13,0.51
5.971,0.47,0.15,-0.72,0.87
5.981,0.50,0.38,-0.39,0.74
5.991,0.25,0.32,-0.11,0.42
6.001,-0.41,0.01,0.12,0.42
6.011,-0.56,-0.54,0.87,1.17
6.021,-0.63,-0.21,-0.29,0.73
6.031,-0.83,0.42,1.12,1.46
6.041,-0.03,0.63,-0.22,0.67
6.052,-0.65,0.35,-0.32,0.80
6.061,0.20,0.55,0.07,0.59
6.072,0.20,-0.76,0.21,0.81
6.082,0.53,-1.03,-0.83,1.43
6.092,0.71,-0.22,0.49,0.89
6.102,0.45,0.12,0.22,0.52
6.112,-0.06,0.46,-0.75,0.88
6.122,-0.28,0.03,0.24,0.37
6.132,-0.39,-0.09,0.40,0.56
6.142,-0.86,0.00,0.02,0.86
6.152,-0.12,0.37,-0.52,0.65
6.162,-0.05,0.16,0.47,0.50
6.172,0.33,-0.27,-0.40,0.59
6.183,-0.08,-0.39,-0.41,0.57
6.193,0.47,-0.44,0.23,0.68
6.203,-0.26,-0.11,-0.14,0.31
6.213,0.03,0.21,0.05,0.21
6.223,0.51,0.36,0.02,0.62
6.233,0.20,0.09,-0.18,0.29
6.243,0.20,-0.11,-0.21,0.31
6.253,-0.23,-0.38,0.17,0.48
6.264,-0.38,-0.09,0.07,0.40
6.273,-0.46,0.42,0.21,0.66
6.283,-0.33,0.34,-0.13,0.50
6.294,-0.01,-0.03,-0.37,0.37
6.304,0.09,-0.13,-0.06,0.17
6.314,0.36,-0.51,-0.14,0.63
6.324,-0.05,-0.38,0.16,0.41
6.334,0.35,-0.29,-0.42,0.62
6.344,-0.25,0.23,0.22,0.41
6.354,0.81,0.28,0.11,0.86
6.364,-0.01,0.24,-0.35,0.42
6.374,-0.18,-0.01,0.24,0.30
6.384,0.14,-0.40,-0.37,0.56
6.394,-0.72,0.20,0.58,0.94
6.404,-0.36,0.70,-0.18,0.81
6.414,-0.38,0.15,-0.19,0.45
6.425,0.30,-0.23,0.09,0.39
6.435,0.11,-0.67,-0.05,0.68
6.445,-0.18,-0.22,-0.55,0.62
6.455,0.46,-0.43,0.29,0.69
6.465,-0.03,-0.02,-0.19,0.19
6.475,0.15,0.40,0.03,0.43
6.485,0.80,0.11,0.26,0.85
6.495,-0.29,0.38,-0.46,0.66
6.505,0.19,-0.52,0.28,0.62
6.515,-0.27,-0.34,-0.55,0.71
6.525,-0.74,0.48,1.06,1.38
6.536,-0.77,0.59,-0.55,1.11
6.546,0.29,0.07,-0.30,0.42
6.556,0.16,-0.40,0.75,0.86
6.566,0.09,-0.27,-1.43,1.46
6.576,-0.09,-0.48,1.17,1.27
6.586,0.22,-0.26,-0.88,0.95
6.596,-0.18,-0.01,0.10,0.21
6.606,0.87,0.23,-0.40,0.99
6.617,0.35,0.30,0.53,0.71
6.626,-0.05,0.47,-0.39,0.62
6.636,-0.25,-0.54,0.27,0.65
6.647,-0.31,-0.48,-0.69,0.90
6.657,-0.46,0.27,0.93,1.07
6.667,-0.50,0.84,-0.14,0.98
6.677,-0.32,0.22,-0.38,0.55
6.687,0.18,-0.43,0.11,0.48
6.697,0.13,-0.44,-0.48,0.66
6.707,0.36,-0.56,0.07,0.67
6.717,-0.20,-0.20,0.36,0.46
6.727,0.18,0.10,-0.78,0.81
6.737,0.28,0.17,0.80,0.86
6.747,0.64,0.32,-0.72,1.01
6.758,0.23,0.13,0.32,0.42
6.767,-0.51,-0.10,-0.45,0.69
6.778,-0.50,-0.22,0.39,0.67
6.788,-0.37,0.32,0.06,0.49
6.798,-0.47,0.64,-0.25,0.83
6.808,0.07,0.09,-0.04,0.11
6.818,0.28,-0.52,-0.14,0.61
6.828,0.04,-0.62,-0.30,0.69
6.838,0.15,-0.39,-0.06,0.42
6.848,0.00,0.00,0.05,0.05
6.858,0.38,0.22,-0.39,0.59
6.868,-0.17,0.28,0.69,0.77
6.878,0.88,0.10,-0.97,1.32
6.889,0.06,-0.12,0.62,0.63
6.899,-0.31,-0.04,-0.42,0.53
6.909,-0.63,-0.28,0.51,0.86
6.919,-0.35,0.32,-0.28,0.55
6.929,-0.52,0.47,0.03,0.70
6.939,0.23,0.28,-0.07,0.36
6.949,0.09,-0.55,-0.08,0.57
6.959,0.12,-0.71,-0.46,0.85
6.969,0.17,-0.45,0.04,0.48
6.979,-0.12,0.10,-0.12,0.20
6.989,0.30,0.29,-0.23,0.48
7.000,0.53,0.12,0.34,0.65
7.010,0.12,0.33,0.31,0.47
7.020,-0.08,-0.05,-0.90,0.90
7.030,0.17,-0.27,0.31,0.45
7.040,-0.66,0.03,0.67,0.94
7.050,-0.59,0.18,-0.30,0.69
7.060,-0.36,0.23,-0.34,0.55
7.070,0.08,0.12,0.25,0.29
7.080,0.25,-0.27,-0.22,0.43
7.090,0.08,-0.65,-0.40,0.77
7.100,0.09,-0.37,0.03,0.38
7.111,0.12,0.16,-0.20,0.28
7.121,0.44,0.20,0.10,0.49
7.131,0.22,0.36,-0.13,0.45
7.141,0.32,0.06,0.13,0.35
7.151,-0.37,-0.14,-0.09,0.41
7.161,-0.03,-0.20,-0.37,0.42
7.171,-0.61,-0.08,0.94,1.12
7.181,-0.35,0.39,-0.42,0.67
7.191,-0.19,0.34,-0.13,0.41
7.201,0.15,-0.06,-0.09,0.18
7.211,-0.08,-0.21,0.09,0.24
7.221,0.05,-0.61,-0.30,0.68
7.232,0.14,-0.51,-0.23,0.57
7.242,0.20,0.02,0.10,0.22
7.252,0.35,0.34,0.09,0.49
7.262,0.24,0.37,-0.15,0.46
7.272,0.31,0.09,-0.07,0.33
7.282,-0.20,-0.20,0.06,0.29
7.292,0.01,-0.29,-0.39,0.48
7.302,-0.44,0.02,0.49,0.66
7.312,-0.53,0.44,-0.01,0.69
7.322,-0.52,0.41,-0.26,0.72
7.332,0.09,0.08,-0.02,0.12
7.342,0.13,-0.33,-0.01,0.36
7.353,0.01,-0.44,-0.34,0.56
7.363,0.33,-0.61,0.28,0.75
7.373,0.22,-0.03,-0.41,0.47
7.383,0.10,0.38,0.42,0.57
7.393,0.35,0.29,-0.14,0.47
7.403,0.06,0.15,-0.33,0.36
7.413,0.17,-0.36,0.15,0.42
7.423,-0.22,-0.20,-0.30,0.42
7.433,-0.59,0.16,0.47,0.77
7.443,-0.32,0.42,-0.03,0.53
7.453,-0.35,0.25,0.00,0.43
7.464,-0.00,-0.10,-0.24,0.26
7.474,0.13,-0.29,-0.05,0.33
7.484,1.03,-0.26,-0.01,1.06
7.494,0.19,0.52,0.49,0.73
7.504,-0.53,0.69,2.04,2.22
7.514,0.45,0.42,-1.43,1.56
7.524,1.00,-0.24,-1.26,1.63
7.534,0.67,-0.57,0.33,0.94
7.544,0.30,0.30,-0.20,0.47
7.554,-0.13,0.77,-0.46,0.91
7.564,-0.92,0.54,1.81,2.10
7.574,-0.30,0.60,-0.27,0.72
7.585,-0.12,0.14,-0.96,0.98
7.595,-0.20,-0.20,0.48,0.55
7.605,-0.16,-0.27,0.15,0.35
7.615,-0.46,-0.15,-0.31,0.57
7.625,-0.41,-0.15,-0.10,0.45
7.635,-0.02,-0.18,-0.08,0.20
7.645,0.19,0.21,-0.13,0.31
7.655,-0.04,0.15,0.06,0.16
7.665,-0.26,-0.05,-0.48,0.54
7.675,-0.49,-0.26,-0.24,0.60
7.685,-0.33,-0.50,-0.12,0.61
7.695,-0.28,-0.89,0.17,0.95
7.706,-0.47,-0.97,-0.74,1.31
7.716,-0.24,-1.08,0.33,1.15
7.726,0.94,-0.12,0.62,1.13
7.736,0.15,-0.14,-1.48,1.49
7.746,0.33,0.35,-1.88,1.94
7.756,-0.20,1.54,-1.24,1.99
7.766,0.22,2.88,-5.33,6.06
7.776,-1.03,0.68,1.69,2.09
7.786,3.49,-4.22,14.92,15.89
7.796,-2.16,4.03,-12.09,12.93
7.807,-0.14,-3.48,6.50,7.38
7.816,-0.00,-0.42,-5.69,5.70
7.827,-0.73,-1.55,5.86,6.11
7.837,0.08,-0.23,-3.44,3.45
7.847,-0.34,0.15,0.74,0.83
7.857,0.29,0.57,0.56,0.85
7.867,-0.03,0.08,-1.23,1.23
7.877,-0.15,-0.35,0.51,0.63
7.887,0.45,-0.32,-0.60,0.81
7.897,-0.28,-0.30,0.33,0.53
7.907,0.61,-0.07,-0.09,0.62
7.917,0.30,0.12,0.10,0.34
7.927,0.26,0.29,-0.39,0.55
7.938,0.21,-0.02,-0.02,0.21
7.948,-0.36,-0.15,-0.04,0.39
7.958,-0.48,-0.19,0.04,0.51
7.968,-0.53,0.43,0.34,0.76
7.978,-0.40,0.65,-0.41,0.87
7.988,-0.07,0.19,0.05,0.21
7.998,0.10,-0.56,-0.11,0.58
8.008,0.18,-0.71,-0.25,0.77
8.018,0.21,-0.42,0.06,0.47
8.028,-0.02,0.06,-0.10,0.12
8.038,0.38,0.10,0.09,0.40
8.048,0.35,0.12,0.13,0.39
8.059,0.40,0.12,-0.42,0.59
8.069,0.21,0.01,0.03,0.22
8.079,-0.42,-0.06,0.19,0.46
8.089,-0.60,-0.14,0.02,0.62
8.099,-0.93,0.17,0.13,0.96
8.109,0.03,0.48,-0.38,0.61
8.119,-0.10,0.18,0.33,0.39
8.129,0.20,-0.30,-0.52,0.63
8.139,0.30,-0.51,-0.11,0.60
8.149,-0.11,-0.37,0.32,0.50
8.159,0.28,-0.11,-0.58,0.65
8.169,0.29,0.11,0.54,0.62
8.179,0.58,0.16,-0.39,0.72
8.190,0.03,0.02,0.06,0.07
8.200,0.34,-0.11,-0.53,0.64
8.210,-0.82,-0.17,0.55,1.00
8.220,-0.29,0.16,-0.28,0.43
8.230,-0.43,0.36,0.51,0.76
8.240,-0.26,0.37,-0.32,0.55
8.250,-0.27,-0.01,-0.09,0.28
8.260,0.30,-0.23,-0.34,0.51
8.270,-0.03,-0.86,0.38,0.94
8.281,0.10,0.04,-0.88,0.89
8.291,0.89,-0.12,0.56,1.06
8.301,-0.17,0.38,-0.45,0.61
8.311,0.35,0.13,0.24,0.44
8.321,0.60,-0.11,-0.08,0.62
8.331,-0.49,-0.24,-0.21,0.59
8.341,-0.32,-0.22,-0.16,0.42
8.351,-0.43,0.30,0.57,0.77
8.361,-0.74,0.53,0.29,0.96
8.371,-0.20,0.18,-0.91,0.95
8.381,0.37,-0.24,0.29,0.53
8.391,0.06,-0.22,0.00,0.23
8.401,0.02,-0.30,-0.86,0.91
8.412,0.21,-0.47,0.39,0.65
8.422,0.66,0.14,-0.00,0.67
8.432,0.08,0.12,0.26,0.30
8.442,0.34,0.07,-0.41,0.54
8.452,-0.07,-0.23,0.11,0.26
8.462,-0.17,-0.11,-0.31,0.37
8.472,-0.13,0.06,0.15,0.20
8.482,-0.63,0.65,0.41,0.99
8.492,-0.48,0.50,-0.24,0.73
8.502,-0.33,-0.21,-0.07,0.40
8.513,0.33,-0.52,-0.33,0.70
8.523,0.29,-0.42,0.01,0.51
8.533,-0.15,-0.17,0.48,0.53
8.543,0.22,-0.16,-1.28,1.30
8.553,0.54,-0.22,0.93,1.10
8.563,0.30,0.70,-0.11,0.77
8.573,0.24,0.27,-0.51,0.63
8.583,-0.03,-0.28,0.13,0.31
8.593,-0.31,-0.15,0.61,0.70
8.603,-0.56,-0.07,-0.71,0.90
8.613,-0.53,0.45,0.53,0.88
8.623,-0.14,0.45,0.66,0.81
8.634,-0.18,-0.10,-2.19,2.20
8.644,0.24,-0.61,1.49,1.63
8.654,0.22,-0.04,-0.49,0.54
8.664,-0.07,-0.48,-0.51,0.71
8.674,0.41,-0.17,0.35,0.56
8.684,0.20,0.17,0.16,0.31
8.694,0.41,0.02,-0.30,0.51
8.704,0.40,0.35,-0.21,0.57
8.714,-0.11,-0.04,0.40,0.41
8.724,-0.59,-0.16,-0.61,0.87
8.734,-0.68,0.15,0.82,1.08
8.744,-0.28,0.54,-0.34,0.69
8.754,-0.09,0.38,-0.41,0.57
8.765,0.40,-0.49,0.57,0.85
8.775,-0.24,-0.54,-0.88,1.06
8.785,0.18,-0.41,0.10,0.46
8.795,-0.01,-0.08,0.04,0.09
8.805,0.02,-0.01,-0.38,0.38
8.815,0.54,0.13,0.48,0.73
8.825,0.63,0.04,-0.23,0.67
8.835,0.29,0.18,-0.30,0.46
8.845,-0.43,0.09,0.36,0.57
8.855,-0.33,-0.25,-0.27,0.50
8.865,-0.76,0.14,0.54,0.94
8.876,-0.21,0.64,-0.25,0.72
8.886,-0.40,0.24,-0.36,0.59
8.896,0.16,-0.33,0.32,0.49
8.906,0.24,-0.50,-0.19,0.59
8.916,0.07,-0.66,-0.66,0.94
8.926,0.16,-0.17,0.16,0.28
8.936,0.09,0.30,0.05,0.32
8.946,0.51,-0.07,-0.00,0.51
8.956,0.47,0.14,-0.22,0.54
8.966,-0.10,0.21,0.05,0.24
8.976,-0.09,0.13,-0.38,0.42
8.986,-0.43,-0.32,0.68,0.86
8.997,-0.54,0.15,-0.16,0.58
9.007,-0.29,0.45,-0.20,0.57
9.017,-0.20,0.33,0.08,0.39
9.027,-0.00,-0.19,-0.35,0.40
9.037,0.33,-0.67,-0.01,0.75
9.047,-0.13,-0.49,-0.15,0.52
9.057,0.25,-0.15,-0.21,0.36
9.067,0.23,0.15,0.50,0.57
9.077,0.44,0.22,-0.28,0.56
9.087,0.16,0.09,-0.03,0.19
9.098,0.34,0.15,-0.03,0.38
9.108,-0.27,-0.16,0.08,0.32
9.118,-0.39,-0.19,-0.12,0.45
9.128,-0.61,0.15,0.35,0.72
9.138,-0.43,0.63,-0.08,0.77
9.148,-0.18,0.25,-0.42,0.52
9.158,0.17,-0.21,0.02,0.27
9.168,0.27,-0.76,0.06,0.81
9.178,0.02,-0.55,-0.74,0.92
9.188,0.35,-0.22,0.09,0.42
9.198,0.08,0.42,0.77,0.88
9.208,0.39,0.26,-0.68,0.82
9.218,0.34,-0.12,0.15,0.39
9.228,0.16,0.01,-0.27,0.31
9.239,-0.35,0.00,0.03,0.35
9.249,-0.41,0.12,0.37,0.56
9.259,-0.76,0.21,-0.00,0.78
9.269,-0.23,0.44,-0.41,0.65
9.279,0.24,-0.02,0.23,0.33
9.289,-0.12,-0.35,-0.43,0.57
9.299,0.22,-0.49,-0.03,0.54
9.309,0.09,-0.41,-0.03,0.42
9.319,0.21,-0.23,-0.12,0.33
9.329,0.14,0.37,0.16,0.43
9.339,0.35,0.40,0.27,0.60
9.349,0.16,0.07,-0.45,0.48
9.360,0.18,-0.13,-0.03,0.22
9.370,0.05,-0.28,0.14,0.31
9.380,-0.60,-0.12,0.05,0.62
9.390,-0.49,0.39,0.19,0.66
9.400,-0.40,0.50,-0.21,0.67
9.410,-0.16,0.26,-0.06,0.31
9.420,0.25,-0.28,-0.04,0.38
9.430,0.10,-0.60,-0.13,0.62
9.440,0.19,-0.63,-0.15,0.68
9.450,0.18,-0.10,-0.01,0.21
9.461,0.54,0.13,0.22,0.60
9.471,0.07,0.51,-0.45,0.68
9.481,0.14,0.25,0.36,0.46
9.491,-0.14,-0.22,-0.22,0.34
9.501,0.15,-0.42,-0.42,0.61
9.511,-0.60,0.11,0.57,0.83
9.521,-0.61,0.55,0.19,0.84
9.531,-0.18,0.42,-0.78,0.91
9.541,0.25,-0.53,0.71,0.92
9.551,-0.02,0.00,-0.50,0.50
9.561,0.69,-0.43,-0.60,1.01
9.571,-0.35,-0.42,0.70,0.89
9.582,-0.19,-0.25,-0.31,0.44
9.592,0.27,0.04,-0.43,0.51
9.602,0.48,0.35,0.67,0.89
9.612,0.34,0.51,-0.75,0.97
9.622,0.05,-0.21,0.23,0.31
9.632,-0.33,-0.41,-0.00,0.53
9.642,-0.34,-0.20,-0.18,0.44
9.652,-0.42,0.65,0.06,0.78
9.662,-0.29,0.66,0.42,0.84
9.672,-0.17,-0.07,-0.12,0.22
9.682,0.26,-0.71,-0.62,0.98
9.692,0.19,-0.26,-0.08,0.33
9.703,0.09,-0.05,0.10,0.14
9.713,0.09,-0.16,-0.56,0.59
9.723,0.11,-0.08,0.63,0.65
9.733,0.52,0.06,-0.10,0.53
9.743,0.32,0.23,-0.20,0.45
9.753,-0.22,0.20,0.37,0.48
9.763,-0.34,-0.06,-0.56,0.66
9.773,-0.11,-0.49,0.50,0.71
9.783,-0.38,0.39,0.10,0.56
9.793,-0.37,0.55,0.13,0.68
9.804,0.25,-0.04,-0.68,0.73
9.814,-0.26,-0.31,0.34,0.53
9.824,0.12,-0.32,-0.02,0.35
9.834,0.17,-0.34,-0.51,0.64
9.844,-0.06,0.06,-0.25,0.26
9.854,0.56,-0.28,0.39,0.74
9.864,0.28,0.43,-0.44,0.68
9.874,0.27,-0.15,0.63,0.70
9.884,-0.18,0.27,-0.80,0.86
9.894,-0.19,-0.12,0.82,0.85
9.904,-0.39,-0.07,-0.39,0.56
9.914,-0.31,0.05,0.11,0.33
9.924,-0.36,0.48,-0.05,0.60
9.935,0.10,0.36,-0.05,0.37
9.945,0.06,-0.40,0.10,0.42
9.955,0.03,-0.45,-0.87,0.98
9.965,0.18,-0.35,0.44,0.59
9.975,-0.02,-0.07,-0.29,0.29
9.985,0.24,-0.12,-0.01,0.27
9.995,0.58,0.21,-0.38,0.72
10.005,-0.02,0.12,0.80,0.81
10.015,0.20,0.41,-1.02,1.12
10.025,-0.18,-0.17,0.30,0.38
10.035,-0.54,-0.08,0.10,0.55
10.045,-0.42,-0.03,0.19,0.46
10.056,-0.19,0.14,0.02,0.24
10.066,-0.06,0.35,-0.56,0.66
10.076,0.13,-0.22,0.11,0.28
10.086,0.20,-0.56,-0.26,0.65
10.096,-0.01,-0.46,0.06,0.47
10.106,0.15,-0.16,-0.14,0.26
10.116,0.04,0.23,0.09,0.25
10.126,0.59,0.26,-0.54,0.84
10.136,0.22,0.15,0.51,0.58
10.146,0.17,0.11,-0.59,0.62
10.156,-0.39,-0.13,0.14,0.43
10.167,-0.22,-0.18,0.25,0.38
10.177,-0.78,0.24,0.09,0.82
10.187,-0.10,0.02,-0.09,0.14
10.197,-0.17,0.08,-0.25,0.31
10.207,0.09,-0.02,0.00,0.09
10.217,0.55,-0.51,0.03,0.75
10.227,-0.20,-0.28,-0.50,0.61
10.237,0.15,-0.28,0.39,0.50
10.247,0.28,0.35,-0.64,0.78
10.257,0.62,0.25,0.24,0.71
10.267,0.00,0.08,0.24,0.26
10.278,-0.23,0.09,-0.43,0.50
10.288,-0.33,-0.16,0.21,0.42
10.298,-0.21,-0.13,0.26,0.36
10.308,-0.59,0.23,0.04,0.63
10.318,0.11,0.25,0.02,0.28
10.328,-0.23,-0.06,-0.30,0.38
10.338,0.07,-0.14,-0.35,0.38
10.348,0.03,-0.83,1.22,1.48
10.358,0.09,-0.22,-1.76,1.77
10.368,0.62,-0.02,0.31,0.69
10.378,-0.07,0.34,1.07,1.13
10.388,0.31,0.34,-1.75,1.81
10.399,0.04,0.03,1.52,1.52
10.408,0.16,0.03,-2.11,2.11
10.419,-0.71,-0.12,1.97,2.10
10.429,0.10,0.23,-1.40,1.42
10.439,-0.63,-0.38,1.22,1.43
10.449,-0.06,0.27,-0.88,0.92
10.459,-0.26,-0.16,0.43,0.53
10.469,0.17,-0.28,-0.96,1.02
10.479,0.13,-0.25,0.59,0.65
10.489,0.28,-0.25,-0.51,0.63
10.499,0.14,-0.27,0.45,0.54
10.509,0.32,0.54,-1.28,1.43
10.520,0.19,-0.02,1.21,1.23
10.530,0.36,0.14,-0.87,0.95
10.540,-0.66,0.21,0.15,0.71
10.550,-0.17,-0.01,0.51,0.54
10.560,-0.88,0.29,0.22,0.95
10.570,-0.06,0.13,-0.69,0.71
10.580,0.12,-0.29,-0.05,0.32
10.590,0.60,-0.45,0.02,0.75
10.600,0.42,-0.15,-1.04,1.13
10.610,-0.53,-0.19,1.72,1.81
10.620,-0.01,-0.22,-1.50,1.51
10.631,-0.18,-0.09,0.45,0.50
10.640,1.02,0.26,0.01,1.06
10.651,0.27,0.28,0.25,0.46
10.661,-0.22,0.09,-0.32,0.40
10.671,-0.10,-0.10,0.02,0.14
10.681,-0.87,0.15,0.56,1.04
10.691,-0.17,0.05,-1.30,1.31
10.701,-0.11,0.05,1.05,1.05
10.711,0.21,0.16,0.13,0.29
10.721,0.28,-0.61,-0.80,1.04
10.731,-0.60,-0.23,0.23,0.69
10.741,0.04,0.06,-0.15,0.17
10.751,0.19,-0.35,0.17,0.43
10.762,0.29,0.05,-0.38,0.48
10.772,0.79,0.12,0.40,0.90
10.782,0.02,0.51,-0.26,0.58
10.792,-0.02,0.13,-0.14,0.19
10.802,-0.48,0.04,-0.06,0.49
10.812,-0.28,-0.49,0.39,0.69
10.822,-0.29,0.16,-0.45,0.56
10.832,-0.86,0.43,0.69,1.18
10.842,0.49,0.08,-0.66,0.83
10.852,0.24,-0.66,-0.15,0.72
10.862,0.21,-0.50,0.00,0.54
10.873,-0.09,-0.05,-0.09,0.14
10.883,0.00,-0.10,0.07,0.12
10.893,0.35,0.11,-0.29,0.47
10.903,-0.00,0.33,0.89,0.95
10.913,0.55,0.26,-1.20,1.35
10.923,0.16,0.12,0.52,0.56
10.933,-0.64,-0.46,-0.06,0.79
10.943,-0.25,-0.15,-0.36,0.47
10.953,-0.53,0.43,0.80,1.05
10.963,-0.29,0.79,-0.22,0.87
10.973,-0.19,-0.10,-0.36,0.42
10.983,0.41,-0.82,-0.47,1.03
10.994,-0.53,-0.13,0.38,0.67
11.004,0.60,-0.47,-0.57,0.95
11.014,0.29,-0.06,0.36,0.47
11.024,0.31,0.19,0.52,0.63
11.034,0.20,0.10,-0.83,0.86
11.044,0.19,0.09,-0.20,0.29
11.054,0.01,0.22,0.33,0.39
11.064,-0.35,-0.16,-0.36,0.52
11.074,-0.44,-0.19,0.37,0.60
11.084,-0.01,0.50,0.42,0.65
11.094,-0.61,0.40,-0.80,1.09
11.104,-0.41,-0.19,-0.01,0.45
11.115,0.31,-0.43,0.42,0.68
11.125,0.10,-0.59,-0.80,1.00
11.135,0.30,-0.50,0.09,0.59
11.145,0.45,0.25,-0.10,0.53
11.155,0.22,0.31,0.31,0.49
11.165,0.36,0.23,-0.25,0.49
11.175,-0.26,0.21,-0.02,0.33
11.185,0.12,-0.17,-0.43,0.48
11.195,-0.47,-0.43,0.37,0.73
11.205,-0.01,0.18,-0.13,0.23
11.216,-0.70,0.36,0.43,0.90
11.225,-0.23,0.41,-0.50,0.68
11.236,-0.14,0.13,0.10,0.21
11.246,0.13,-0.53,-0.06,0.55
11.256,0.35,-0.72,-0.50,0.94
11.266,0.04,-0.43,0.39,0.58
11.276,0.54,0.13,-0.21,0.59
11.286,-0.00,0.40,0.07,0.41
11.296,0.66,0.26,-0.31,0.78
11.306,-0.23,0.00,0.38,0.44
11.316,-0.02,-0.05,-1.14,1.14
11.326,-0.62,-0.10,1.20,1.35
11.336,-0.22,-0.02,-0.34,0.40
11.346,-0.36,0.35,-0.31,0.59
11.357,-0.10,0.35,0.55,0.66
11.367,-0.19,-0.03,-0.57,0.60
11.377,0.12,-0.57,-0.43,0.72
11.387,0.15,-0.71,0.67,0.98
11.397,0.29,-0.25,-0.69,0.79
11.407,0.17,0.25,0.30,0.43
11.417,0.48,0.40,0.32,0.71
11.427,0.24,0.23,-0.52,0.62
11.438,0.07,-0.24,-0.05,0.26
11.447,-0.12,-0.16,-0.09,0.22
11.458,-0.30,-0.16,0.20,0.39
11.468,-0.65,0.32,0.21,0.75
11.478,-0.34,0.55,-0.08,0.65
11.488,-0.26,0.17,-0.24,0.39
11.498,0.20,-0.09,-0.23,0.31
11.508,0.09,-0.30,0.07,0.32
11.518,-0.12,-0.67,-0.37,0.77
11.528,0.25,-0.26,-0.01,0.36
11.538,0.52,0.04,0.34,0.62
11.548,0.31,0.19,-0.53,0.64
11.558,0.39,0.38,0.34,0.64
11.569,-0.04,-0.17,-0.43,0.46
11.579,-0.33,-0.19,-0.44,0.59
11.589,0.05,0.02,0.69,0.69
11.599,-0.91,0.47,0.23,1.04
11.609,-0.36,0.31,-0.51,0.70
11.619,0.22,0.16,0.03,0.27
11.629,-0.06,-0.23,0.05,0.24
11.639,0.01,-0.43,-0.61,0.74
11.649,0.13,-0.34,0.20,0.41
11.659,0.06,-0.25,-0.13,0.29
11.669,0.25,-0.03,-0.09,0.27
11.679,0.64,0.12,0.32,0.73
11.690,-0.04,0.53,-0.28,0.61
11.700,0.33,-0.20,0.02,0.39
11.710,-0.02,-0.40,-0.29,0.49
11.720,-0.43,-0.17,0.08,0.46
11.730,-0.70,0.42,0.66,1.05
11.740,-0.27,0.72,-0.46,0.90
11.750,-0.11,0.07,0.19,0.23
11.760,0.03,-0.32,-0.32,0.45
11.770,0.05,-0.56,-0.16,0.58
11.780,0.13,0.21,-0.29,0.38
11.790,0.27,-0.62,0.36,0.77
11.800,0.00,-0.23,-0.66,0.70
11.811,0.51,0.24,0.39,0.69
11.821,0.24,0.51,0.14,0.58
11.831,0.31,0.03,-0.69,0.75
11.841,-0.36,-0.31,0.29,0.55
11.851,-0.06,-0.17,-0.01,0.18
11.861,-0.92,0.27,0.50,1.08
11.871,-0.33,0.76,-0.10,0.84
11.881,0.04,0.20,-0.85,0.88
11.891,0.14,-0.58,0.87,1.06
11.901,0.14,-0.42,-0.82,0.93
11.911,-0.04,-0.48,0.09,0.50
11.921,0.22,-0.22,0.19,0.36
11.932,-0.12,0.28,-0.30,0.43
11.942,0.68,-0.07,0.57,0.89
11.952,0.20,0.44,-0.95,1.06
11.962,0.44,-0.03,0.63,0.77
11.972,-0.41,-0.08,-0.43,0.60
11.982,-0.26,-0.32,-0.02,0.42
11.992,-0.52,0.20,0.62,0.83
12.002,-0.62,0.73,-0.48,1.07
12.012,0.08,0.44,0.25,0.52
12.022,-0.02,-0.53,-0.05,0.53
12.033,0.15,-0.64,-0.83,1.06
12.042,0.12,-0.27,0.88,0.93
12.052,0.17,-0.11,-0.79,0.82
12.063,-0.08,0.13,-0.19,0.24
12.073,0.80,-0.07,0.53,0.96
12.083,-0.15,0.20,-0.22,0.33
12.093,0.20,0.08,-0.05,0.22
12.103,0.39,-0.11,-0.21,0.46
12.113,-0.65,-0.31,0.26,0.77
12.123,-0.68,0.25,0.25,0.77
12.133,-0.27,0.55,-0.22,0.65
12.143,-0.42,0.22,0.10,0.48
12.153,0.51,-0.12,-0.50,0.72
12.163,-0.00,-0.85,0.24,0.89
12.174,0.08,-0.35,-0.49,0.61
12.184,0.13,0.09,0.05,0.16
12.194,0.37,-0.05,0.16,0.41
12.204,-0.01,0.29,-0.32,0.43
12.214,0.75,-0.06,0.24,0.79
12.224,-0.10,0.21,-0.50,0.55
12.234,-0.11,-0.31,0.44,0.55
12.244,-0.19,-0.13,-0.53,0.58
12.254,-1.04,0.19,1.06,1.50
12.264,0.12,0.58,-0.78,0.98
12.274,-0.57,-0.12,0.01,0.58
12.284,0.74,-0.12,-0.29,0.80
12.295,-0.15,-0.49,0.63,0.81
12.305,-0.07,-0.36,-1.43,1.47
12.315,0.29,-0.22,0.71,0.80
12.325,0.50,0.22,-0.42,0.69
12.335,0.05,0.28,0.33,0.44
12.345,0.50,-0.07,-0.28,0.58
12.355,-0.20,0.15,-0.22,0.34
12.365,0.11,-0.24,0.34,0.43
12.375,-0.56,0.07,-0.13,0.58
12.385,-0.82,0.34,0.19,0.91
12.396,0.02,0.56,-0.51,0.76
12.405,-0.08,-0.14,0.72,0.73
12.416,0.28,-0.34,-1.11,1.20
12.426,-0.04,-0.79,0.40,0.89
12.436,0.05,-0.23,-0.34,0.41
12.446,0.12,-0.06,-0.31,0.34
12.456,0.39,0.35,0.33,0.62
12.466,0.38,0.41,0.24,0.61
12.476,0.19,-0.09,-0.56,0.60
12.486,-0.03,-0.19,-0.24,0.31
12.496,-0.02,-0.34,0.33,0.47
12.507,-0.61,0.26,0.13,0.67
12.516,-0.74,0.55,-0.13,0.93
12.527,-0.01,0.26,0.02,0.26
12.537,0.25,-0.22,-0.09,0.35
12.547,0.02,-0.43,-0.26,0.50
12.557,0.31,-0.38,-0.17,0.52
12.567,-0.13,-0.24,0.35,0.44
12.577,0.10,-0.16,-0.46,0.50
12.587,0.34,0.10,0.16,0.39
12.597,0.54,0.32,0.24,0.67
12.607,-0.11,0.25,-0.47,0.54
12.618,-0.15,-0.07,-0.12,0.20
12.627,-0.19,-0.40,0.48,0.65
12.637,-0.46,0.24,-0.46,0.69
12.648,-0.66,0.60,0.22,0.92
12.658,0.26,0.17,0.19,0.36
12.668,0.02,-0.55,-0.25,0.61
12.678,0.01,-0.52,-0.35,0.63
12.688,0.25,-0.35,0.15,0.45
12.698,-0.08,-0.11,-0.19,0.23
12.708,0.06,0.01,-0.08,0.10
12.718,0.56,0.03,0.47,0.73
12.728,0.21,0.45,-0.81,0.95
12.738,0.17,0.17,0.42,0.49
12.749,-0.20,-0.08,-0.30,0.37
12.758,-0.43,-0.28,0.31,0.60
12.769,-0.32,0.23,-0.06,0.40
12.779,-0.35,0.28,-0.06,0.45
12.789,-0.02,0.18,-0.29,0.34
12.799,0.09,-0.49,0.12,0.51
12.809,0.06,-0.42,-0.55,0.69
12.819,-0.08,-0.17,0.24,0.31
12.829,0.40,-0.28,-0.04,0.49
12.839,-0.32,0.06,-0.08,0.34
12.849,0.64,-0.07,0.24,0.68
12.859,0.23,0.45,-0.57,0.76
12.870,0.23,0.35,0.12,0.43
12.880,-0.04,0.09,0.01,0.10
12.890,-0.79,-0.42,0.26,0.93
12.900,-0.63,0.11,0.08,0.64
12.910,-0.04,0.43,-0.42,0.60
12.920,0.15,-0.10,0.19,0.27
12.930,0.11,-0.26,-0.30,0.41
12.940,0.16,-0.44,0.05,0.47
12.950,-0.14,-0.27,0.22,0.38
12.960,0.05,-0.15,-0.63,0.65
12.970,0.05,0.04,0.41,0.41
12.980,0.63,0.21,-0.02,0.67
12.991,0.20,0.34,-0.37,0.54
13.001,0.00,0.43,-0.04,0.43
13.011,-0.29,-0.13,0.30,0.43
13.021,-0.46,-0.13,-0.09,0.49
13.031,-0.39,-0.10,0.09,0.42
13.041,-0.29,0.37,-0.51,0.69
13.051,0.18,-0.01,0.21,0.27
13.061,0.27,-0.58,-0.03,0.64
13.071,-0.11,-0.24,-0.84,0.88
13.081,0.30,-0.25,0.46,0.60
13.091,-0.15,-0.05,0.04,0.16
13.101,0.37,-0.03,-0.53,0.65
13.112,0.50,0.28,-0.10,0.58
13.122,0.09,0.37,0.15,0.41
13.132,0.05,0.41,-0.28,0.50
13.142,-0.35,-0.23,0.36,0.55
13.152,-0.42,-0.25,-0.39,0.63
13.162,-0.50,0.03,0.24,0.56
13.172,-0.01,0.22,0.42,0.47
13.182,-0.37,0.03,-0.28,0.46
13.192,0.63,-0.35,-0.69,1.00
13.202,-0.12,-0.63,0.98,1.17
13.212,-0.03,-0.37,-0.58,0.69
13.222,0.15,-0.07,-0.23,0.28
13.233,0.36,0.17,0.05,0.40
13.243,0.28,0.66,-0.45,0.85
13.253,0.78,0.10,-0.50,0.93
13.263,-0.55,0.13,1.09,1.23
13.273,-0.06,0.10,-0.19,0.23
13.283,-0.67,-0.48,0.35,0.89
13.293,-0.48,-0.00,-0.60,0.77
13.303,-0.44,0.27,0.48,0.71
13.313,0.34,-0.10,0.11,0.37
13.323,-0.14,-0.31,-0.21,0.39
13.333,0.36,-0.43,-0.78,0.96
13.344,-0.09,-0.39,1.07,1.14
13.354,0.11,0.08,-0.87,0.88
13.364,0.69,0.33,-0.54,0.94
13.374,0.24,0.46,0.35,0.62
13.384,0.42,0.14,-0.53,0.69
13.394,-0.36,0.00,0.22,0.42
13.404,0.06,-0.29,0.13,0.32
13.414,-0.85,-0.13,0.37,0.94
13.424,-0.37,-0.03,0.02,0.37
13.434,-0.23,0.21,0.21,0.37
13.444,0.10,0.06,-0.20,0.23
13.454,-0.04,-0.29,-0.40,0.50
13.465,0.30,-0.57,0.64,0.91
13.475,-0.03,-0.06,-1.51,1.51
13.485,0.09,0.07,1.03,1.03
13.495,0.62,0.17,-0.60,0.88
13.505,0.10,0.63,-1.17,1.33
13.515,0.58,-0.05,1.22,1.36
13.525,-0.30,-0.04,-0.69,0.76
13.535,-0.19,-0.53,0.27,0.63
13.545,-0.39,0.13,0.79,0.89
13.555,-0.72,0.24,-0.47,0.89
13.566,-0.41,-0.14,0.72,0.84
13.575,0.34,0.08,-1.13,1.18
13.586,-0.28,-0.12,0.66,0.72
13.596,0.47,-0.48,-0.35,0.75
13.606,-0.11,-0.31,-0.85,0.91
13.616,0.05,0.07,0.49,0.49
13.626,0.85,0.26,-0.34,0.96
13.636,0.15,0.45,-0.27,0.55
13.646,0.59,0.28,-0.85,1.07
13.656,-0.25,-0.21,1.00,1.05
13.666,-0.51,-0.35,-0.27,0.67
13.676,-0.64,-0.17,0.44,0.79
13.686,-0.19,0.11,0.57,0.61
13.696,-0.32,0.17,-0.14,0.39
13.707,0.19,-0.27,-0.27,0.43
13.717,0.02,-0.10,-0.06,0.12
13.727,-0.02,-0.09,-0.34,0.35
13.737,0.33,-0.37,0.43,0.66
13.747,0.27,-0.25,-0.79,0.87
13.757,0.02,0.45,-0.47,0.65
13.767,0.55,0.35,0.62,0.90
13.777,0.18,0.24,-0.26,0.40
13.787,-0.11,-0.16,-1.15,1.17
13.798,-0.31,-0.40,1.33,1.42
13.807,-0.43,0.03,0.35,0.55
13.818,-0.32,0.19,-0.28,0.47
13.828,-0.45,0.05,0.29,0.54
13.838,0.06,-0.13,-0.11,0.18
13.848,0.12,-0.23,-0.48,0.55
13.858,-0.18,-0.06,0.20,0.27
13.868,0.28,-0.29,-0.19,0.45
13.878,0.12,-0.34,-0.25,0.44
13.888,0.46,0.16,-0.00,0.49
13.898,0.57,0.48,-0.57,0.94
13.908,0.30,0.14,0.19,0.38
13.918,-0.16,-0.05,-0.23,0.29
13.928,-0.59,-0.13,0.18,0.63
13.939,-0.44,0.26,0.61,0.80
13.949,-0.30,0.19,0.16,0.39
13.959,-0.31,-0.02,-0.45,0.55
13.969,0.10,-0.35,0.27,0.46
13.979,0.01,-0.47,0.05,0.47
13.989,0.14,-0.41,-0.25,0.50
13.999,-0.05,-0.06,-0.07,0.10
14.009,-0.00,-0.00,-0.47,0.47
14.019,0.62,0.31,-0.36,0.79
14.029,0.86,0.39,-0.22,0.97
14.039,0.31,-0.00,0.24,0.39
14.050,-0.41,-0.17,-0.47,0.65
14.060,-0.84,-0.20,0.98,1.31
14.070,-0.37,0.59,-0.54,0.89
14.080,-0.44,0.25,0.20,0.54
14.090,0.22,0.01,0.06,0.22
14.100,0.30,-0.34,-0.21,0.50
14.110,-0.53,-0.50,-0.21,0.76
14.120,0.03,-0.37,-0.24,0.44
14.130,0.15,0.04,0.36,0.39
14.140,0.01,0.10,-0.57,0.58
14.150,0.69,-0.10,0.04,0.69
14.160,0.56,0.42,-0.55,0.89
14.171,0.11,-0.08,0.51,0.53
14.181,-0.36,0.21,-0.27,0.50
14.191,-0.23,-0.35,0.34,0.54
14.201,-0.55,-0.07,0.08,0.56
14.211,-0.29,0.31,-0.29,0.52
14.221,-0.06,0.25,-0.09,0.28
14.231,0.14,-0.15,0.23,0.31
14.241,0.14,-0.49,-0.61,0.79
14.252,-0.15,-0.54,0.24,0.61
14.261,-0.04,-0.26,0.07,0.27
14.271,0.34,0.19,-0.45,0.59
14.282,0.21,0.48,-0.58,0.78
14.292,0.89,-0.02,0.85,1.23
14.302,-0.07,0.12,-0.17,0.22
14.312,-0.07,-0.11,-0.67,0.68
14.322,-0.29,-0.29,0.54,0.68
14.332,-0.50,-0.02,0.03,0.51
14.342,-0.47,0.12,0.02,0.48
14.352,-0.14,0.25,-0.18,0.34
14.362,-0.05,-0.01,0.19,0.20
14.372,0.15,-0.30,-0.19,0.39
14.382,0.03,-0.39,-0.40,0.56
14.393,0.09,-0.36,0.14,0.40
14.403,0.29,0.32,-0.56,0.71
14.413,0.46,0.33,0.51,0.76
14.423,0.69,0.16,-0.58,0.92
14.433,-0.22,-0.23,0.41,0.52
14.443,-0.35,-0.10,-0.39,0.53
14.453,-0.26,-0.17,-0.10,0.33
14.463,-0.31,0.02,0.79,0.85
14.473,-0.40,0.53,-0.45,0.80
14.483,-0.24,-0.06,0.32,0.41
14.493,0.24,-0.11,-0.60,0.66
14.503,0.00,-0.44,0.13,0.46
14.514,0.20,-0.47,-0.26,0.58
14.524,-0.10,-0.06,-0.14,0.18
14.534,0.35,0.23,0.33,0.53
14.544,0.41,0.43,-0.22,0.64
14.554,0.17,0.13,-0.13,0.25
14.564,0.24,-0.14,-0.16,0.32
14.574,-0.36,-0.19,-0.12,0.43
14.584,-0.46,-0.06,0.32,0.56
14.594,-0.40,0.26,0.24,0.53
14.604,-0.40,0.23,-0.27,0.53
14.615,-0.01,-0.11,-0.36,0.37
14.624,0.14,-0.28,-0.09,0.32
14.634,-0.06,-0.24,0.10,0.27
14.645,0.48,-0.46,-0.56,0.87
14.655,-0.24,-0.26,0.56,0.66
14.665,0.47,0.12,-0.69,0.84
14.675,0.47,0.63,0.26,0.83
14.685,0.24,0.15,0.25,0.38
14.695,0.05,-0.24,-0.53,0.58
14.705,-0.50,-0.23,0.31,0.63
14.715,-0.28,-0.10,0.64,0.71
14.725,-0.65,0.67,-0.60,1.11
14.735,-0.35,0.29,0.14,0.47
14.746,0.20,-0.12,-0.14,0.27
14.756,0.07,-0.70,0.05,0.70
14.766,0.26,-0.34,-0.52,0.68
14.776,0.11,-0.38,0.34,0.52
14.786,0.04,-0.01,-0.41,0.41
14.796,0.23,0.19,0.45,0.54
14.806,0.43,0.37,-0.16,0.59
14.816,0.27,0.27,-0.40,0.55
14.826,-0.26,-0.17,0.60,0.67
14.836,0.08,-0.39,-1.24,1.31
14.846,-0.97,-0.16,1.53,1.82
14.857,0.03,0.29,-0.35,0.45
14.866,-0.54,0.31,-0.57,0.84
14.877,0.11,0.09,0.43,0.45
14.887,-0.00,-0.24,-0.28,0.36
14.897,0.08,-0.46,-0.64,0.79
14.907,0.09,-0.22,0.36,0.43
14.917,0.30,-0.25,-0.14,0.42
14.927,0.16,0.05,-0.13,0.22
14.937,0.44,0.41,-0.01,0.60
14.947,0.24,0.28,0.10,0.38
14.957,-0.07,-0.17,-0.38,0.42
14.968,-0.43,-0.21,0.26,0.54
14.977,-0.28,0.15,-0.02,0.32
14.988,-0.72,0.61,0.09,0.94
14.998,-0.23,0.33,0.12,0.42
15.008,0.02,-0.42,-0.45,0.62
15.018,0.03,-0.70,0.16,0.71
15.028,0.47,-0.36,-0.67,0.89
15.038,-0.02,-0.09,0.41,0.42
15.048,0.21,0.06,0.06,0.23
15.058,0.22,0.07,0.19,0.29
15.068,0.35,0.31,-0.50,0.69
15.078,0.26,0.14,0.71,0.77
15.088,-0.26,-0.02,-0.45,0.52
15.098,-0.48,-0.02,0.21,0.53
15.109,-0.56,0.31,0.14,0.65
15.119,-0.49,0.37,-0.25,0.66
15.129,0.18,-0.20,0.28,0.39
15.139,0.13,-0.39,-0.83,0.92
15.149,0.23,-0.60,0.43,0.77
15.159,0.14,-0.25,-0.20,0.35
15.169,-0.21,0.04,-0.47,0.52
15.179,0.44,-0.12,0.52,0.69
15.189,0.11,0.09,-0.00,0.15
15.199,0.49,0.13,-0.56,0.76
15.209,0.05,0.38,0.22,0.45
15.219,-0.14,0.12,-0.16,0.25
15.230,-0.30,-0.69,0.39,0.85
15.240,-0.15,-0.06,-0.75,0.76
15.250,-0.71,0.43,0.84,1.18
15.260,0.06,0.40,-0.20,0.45
15.270,-0.25,-0.07,-0.58,0.64
15.280,0.38,-0.61,0.17,0.74
15.290,0.18,-0.43,-0.22,0.51
15.300,-0.01,-0.24,0.07,0.25
15.310,0.06,0.07,0.11,0.15
15.320,0.19,0.54,0.16,0.60
15.330,0.31,1.45,-0.60,1.60
15.341,-0.31,2.79,0.12,2.81
15.351,0.09,3.78,0.12,3.78
15.361,-0.39,2.95,-0.11,2.98
15.371,-0.02,0.07,0.19,0.21
15.381,0.16,-0.85,-0.49,1.00
15.391,0.07,-0.58,0.03,0.59
15.401,-0.19,-0.61,0.32,0.71
15.411,-0.23,-0.40,-0.55,0.72
15.421,0.04,0.08,0.27,0.29
15.431,0.27,0.41,-0.03,0.49
15.441,0.09,0.44,-0.35,0.57
15.452,-0.19,-0.08,0.30,0.36
15.462,-0.26,-0.10,-0.31,0.41
15.472,0.22,-0.12,0.03,0.25
15.482,0.12,0.01,0.01,0.12
15.492,-0.15,0.09,-0.22,0.28
15.502,-0.02,-0.10,0.18,0.21
15.512,-0.01,0.04,-0.21,0.21
15.522,0.12,-0.13,0.07,0.19
15.532,-0.16,0.05,-0.10,0.19
15.542,0.02,-0.01,-0.04,0.05
15.552,-0.00,-0.03,-0.00,0.03
15.562,0.04,-0.13,-0.11,0.17
15.573,-0.07,0.00,-0.02,0.08
15.583,-0.01,0.08,-0.07,0.10
15.593,0.02,-0.08,-0.03,0.09
15.603,-0.04,-0.07,-0.08,0.11
15.613,0.04,0.00,-0.05,0.06
15.623,-0.04,0.04,-0.02,0.06
15.633,0.01,-0.09,-0.04,0.10
15.643,0.00,-0.04,-0.05,0.06
15.653,0.01,0.01,-0.05,0.05
15.663,-0.05,0.00,-0.07,0.08
15.673,-0.00,-0.09,-0.04,0.10
15.684,0.03,-0.02,-0.07,0.08
15.694,-0.00,-0.03,-0.03,0.05
15.704,-0.02,-0.04,-0.06,0.08
15.714,0.02,0.02,-0.08,0.08
15.724,0.01,-0.04,-0.02,0.05
15.734,-0.09,-0.06,-0.09,0.14
15.744,0.02,-0.03,-0.03,0.05
15.754,0.00,0.00,-0.06,0.06
15.764,-0.01,-0.05,-0.06,0.08
15.774,-0.03,-0.02,-0.06,0.07
15.784,0.03,-0.02,-0.05,0.06
15.794,-0.02,-0.02,-0.04,0.05
15.804,-0.01,-0.05,-0.06,0.07
15.815,-0.00,-0.01,-0.04,0.04
15.825,0.00,-0.03,-0.04,0.05
15.835,-0.04,-0.03,-0.05,0.07
15.845,-0.00,-0.02,-0.05,0.05
15.855,-0.01,-0.01,-0.05,0.05
15.865,-0.02,-0.04,-0.04,0.06
15.875,-0.02,-0.04,-0.04,0.06
15.887,-0.00,-0.05,0.02,0.06
15.898,0.02,0.00,-0.14,0.14
15.905,-0.03,-0.03,0.19,0.20
15.915,-0.11,-0.02,-0.36,0.38
15.928,0.06,-0.03,0.27,0.28
15.935,0.10,0.01,-0.30,0.31
