time,ax,ay,az,atotal
0.000,0.10,-0.07,-0.11,0.16
0.010,-0.00,-0.10,-0.10,0.14
0.020,-0.04,-0.12,-0.11,0.16
0.030,0.01,-0.13,-0.10,0.17
0.040,0.08,-0.11,-0.06,0.15
0.050,0.07,-0.07,-0.06,0.12
0.060,0.02,-0.05,-0.08,0.10
0.071,0.02,-0.04,-0.06,0.08
0.080,0.02,-0.05,-0.08,0.09
0.091,0.04,-0.07,-0.09,0.12
0.101,0.02,-0.04,-0.06,0.08
0.111,0.02,-0.03,-0.06,0.07
0.121,0.05,-0.04,-0.05,0.08
0.131,0.02,-0.04,-0.04,0.06
0.141,0.04,-0.03,-0.06,0.08
0.151,0.04,-0.05,-0.03,0.07
0.161,0.04,-0.00,-0.06,0.07
0.171,-0.03,0.01,-0.02,0.04
0.181,-0.13,0.11,0.20,0.26
0.191,0.06,0.19,0.10,0.22
0.202,0.10,0.13,0.36,0.39
0.212,0.19,0.17,-0.08,0.27
0.222,-0.03,0.19,-0.09,0.21
0.232,-0.17,0.17,-0.02,0.24
0.242,-0.01,0.14,-0.17,0.22
0.252,0.13,0.01,-0.11,0.17
0.262,0.21,-0.07,-0.06,0.23
0.272,0.19,-0.11,-0.06,0.23
0.282,0.17,-0.12,-0.06,0.21
0.292,0.04,-0.05,-0.09,0.11
0.302,-0.15,-0.02,-0.06,0.16
0.313,-0.24,-0.03,-0.06,0.25
0.322,-0.18,-0.10,-0.07,0.22
0.333,0.02,-0.19,-0.06,0.19
0.343,0.09,-0.22,-0.07,0.25
0.353,0.14,-0.12,0.04,0.19
0.363,0.13,0.06,-0.06,0.16
0.373,-0.04,0.11,0.09,0.15
0.383,-0.03,0.17,-0.06,0.19
0.393,-0.02,0.16,-0.12,0.20
0.403,-0.03,0.02,-0.03,0.05
0.413,0.09,-0.04,-0.15,0.18
0.423,0.17,-0.17,-0.12,0.27
0.433,0.14,-0.19,-0.07,0.25
0.444,0.00,-0.04,0.03,0.04
0.454,-0.38,0.01,0.50,0.62
0.464,0.13,0.08,-0.07,0.17
0.474,0.05,0.01,-0.20,0.21
0.484,0.06,-0.05,-0.15,0.17
0.494,0.13,-0.10,-0.20,0.26
0.504,0.18,-0.18,-0.08,0.26
0.514,0.16,-0.21,-0.07,0.27
0.524,-0.02,-0.20,-0.01,0.20
0.534,-0.16,-0.17,-0.02,0.24
0.545,-0.11,-0.09,-0.21,0.26
0.555,-0.13,-0.03,-0.07,0.15
0.565,-0.10,0.11,0.17,0.22
0.575,-0.16,-0.06,0.67,0.69
0.585,0.10,-0.38,-0.19,0.44
0.595,0.19,-0.58,-0.44,0.75
0.605,1.09,-0.43,-0.20,1.19
0.615,-0.13,-0.28,0.24,0.39
0.625,-0.06,-0.31,-0.12,0.34
0.635,0.03,-0.41,-0.19,0.45
0.645,0.13,-0.33,-0.23,0.42
0.655,0.44,-0.26,0.38,0.63
0.665,0.17,-0.25,0.09,0.31
0.676,0.06,-0.13,-0.54,0.56
0.686,-0.14,-0.15,0.02,0.20
0.696,-0.36,0.04,0.35,0.50
0.706,-0.35,0.03,0.52,0.63
0.716,-0.11,-0.13,-0.38,0.42
0.726,0.03,-0.27,-0.25,0.37
0.736,0.15,-0.27,0.11,0.33
0.746,0.30,-0.18,-0.20,0.40
0.756,0.25,-0.25,-0.13,0.38
0.766,0.24,-0.19,-0.10,0.32
0.776,0.32,-0.15,-0.05,0.36
0.786,0.42,-0.17,0.15,0.47
0.797,0.17,-0.24,0.05,0.30
0.807,-0.07,-0.25,-0.40,0.48
0.817,-0.29,-0.34,-0.02,0.45
0.827,-0.58,-0.36,0.21,0.72
0.837,-0.49,-0.72,0.54,1.03
0.847,-0.26,-1.00,-0.32,1.08
0.857,-0.18,-0.90,-0.29,0.96
0.867,-0.03,-0.49,0.11,0.50
0.877,-0.00,-0.13,0.01,0.13
0.887,0.03,0.02,-0.38,0.38
0.897,0.16,0.03,0.09,0.18
0.908,0.18,0.17,0.03,0.25
0.918,0.67,0.21,-0.03,0.70
0.928,0.35,0.17,0.05,0.39
0.938,0.15,0.00,-0.39,0.42
0.948,-0.31,-0.09,0.21,0.38
0.958,-0.55,-0.13,0.29,0.63
0.968,-0.41,0.22,0.06,0.47
0.978,-0.19,0.28,-0.11,0.36
0.988,-0.01,0.04,0.03,0.06
0.998,0.12,-0.24,-0.29,0.39
1.008,0.14,-0.53,-0.05,0.55
1.018,0.14,-0.36,0.10,0.40
1.028,0.26,-0.13,-0.08,0.31
1.039,0.44,0.30,-0.55,0.76
1.049,0.70,0.06,-0.04,0.70
1.059,0.01,0.11,0.34,0.36
1.069,-0.25,0.33,-0.19,0.46
1.079,-0.63,0.52,0.09,0.82
1.089,-0.48,0.57,0.34,0.82
1.099,-0.41,0.47,-0.08,0.63
1.109,0.11,-0.47,0.22,0.53
1.119,0.50,-0.72,-0.51,1.02
1.129,0.24,-0.53,0.01,0.58
1.139,0.12,-0.40,0.13,0.44
1.149,-0.22,-0.01,-0.34,0.41
1.160,0.10,0.11,0.08,0.17
1.170,0.48,0.48,-0.25,0.72
1.180,0.70,0.07,0.19,0.73
1.190,0.17,0.06,-0.29,0.34
1.200,-0.29,-0.10,0.24,0.39
1.210,-0.58,0.27,-0.20,0.67
1.220,-0.66,0.40,0.48,0.90
1.230,-0.11,-0.04,0.04,0.12
1.240,-0.05,-0.25,-0.39,0.47
1.250,0.42,-0.33,-0.01,0.54
1.260,0.12,-0.15,-0.04,0.19
1.271,0.10,-0.17,-0.17,0.26
1.281,-0.01,-0.15,-0.08,0.17
1.291,0.16,-0.04,0.20,0.26
1.301,0.44,0.37,-0.61,0.84
1.311,0.37,0.06,0.66,0.76
1.321,0.30,0.14,-0.60,0.69
1.331,-0.38,-0.03,0.27,0.47
1.341,-0.43,0.07,0.24,0.50
1.351,-0.45,0.25,0.08,0.52
1.361,-0.19,0.14,0.09,0.25
1.371,0.10,-0.13,-0.27,0.31
1.382,0.29,-0.32,-0.18,0.47
1.392,0.12,-0.12,0.03,0.17
1.402,-0.03,-0.19,-0.20,0.28
1.412,-0.01,-0.36,-0.00,0.36
1.422,0.26,-0.04,-0.24,0.36
1.432,0.45,0.29,0.22,0.58
1.442,0.64,0.28,-0.13,0.71
1.452,0.24,-0.01,-0.02,0.24
1.462,-0.51,0.06,-0.06,0.52
1.472,-0.73,0.40,0.27,0.88
1.482,-0.44,0.30,0.18,0.56
1.492,-0.12,-0.01,-0.05,0.13
1.502,0.16,-0.36,-0.31,0.50
1.513,0.29,-0.47,-0.06,0.55
1.523,0.21,-0.26,-0.04,0.34
1.533,0.04,0.03,-0.24,0.25
1.543,0.13,-0.18,0.02,0.22
1.553,0.26,0.03,0.01,0.26
1.563,0.55,0.16,-0.01,0.57
1.573,0.31,0.15,-0.16,0.38
1.583,-0.07,0.14,0.03,0.16
1.593,-0.60,0.21,0.17,0.66
1.603,-0.79,0.56,0.10,0.98
1.613,-0.12,0.13,0.25,0.31
1.624,0.17,-0.16,-0.20,0.31
1.633,0.27,-0.51,-0.17,0.61
1.644,0.29,-0.42,-0.10,0.52
1.654,0.04,-0.04,-0.09,0.11
1.664,-0.09,-0.00,-0.01,0.09
1.674,-0.00,-0.22,-0.12,0.25
1.684,0.27,0.04,-0.38,0.47
1.694,0.50,0.17,0.57,0.78
1.704,0.66,0.21,-0.55,0.89
1.714,-0.25,0.12,0.20,0.34
1.724,-0.62,0.39,0.10,0.74
1.735,-0.84,0.48,0.06,0.97
1.745,-0.17,0.04,0.23,0.29
1.755,0.16,-0.12,-0.24,0.31
1.765,0.34,-0.45,-0.17,0.59
1.775,0.33,-0.57,0.03,0.65
1.785,0.04,-0.28,-0.24,0.37
1.795,-0.07,-0.02,0.04,0.09
1.805,0.06,0.03,0.01,0.07
1.815,0.49,0.14,-0.34,0.61
1.825,0.37,0.27,0.23,0.51
1.835,0.27,0.20,-0.14,0.37
1.845,-0.24,0.17,0.01,0.29
1.855,-0.54,0.09,0.15,0.56
1.866,-0.35,-0.12,0.23,0.43
1.876,-0.12,0.11,-0.15,0.23
1.886,0.02,0.17,0.07,0.18
1.896,0.19,-0.11,-0.11,0.25
1.906,0.14,-0.49,-0.07,0.52
1.916,-0.13,-0.32,-0.26,0.44
1.926,-0.06,-0.20,0.34,0.40
1.936,0.20,0.06,-0.28,0.35
1.946,0.73,0.27,-0.51,0.93
1.956,0.53,0.24,0.46,0.74
1.966,0.01,0.15,-0.11,0.19
1.977,-0.28,0.01,-0.14,0.31
1.987,-0.56,0.02,0.20,0.59
1.997,-0.32,0.01,0.34,0.47
2.007,-0.27,0.16,-0.25,0.40
2.017,0.06,0.20,0.01,0.21
2.027,0.04,0.02,-0.08,0.09
2.037,0.17,-0.48,-0.10,0.51
2.047,0.08,-0.53,-0.15,0.56
2.057,0.14,-0.31,0.15,0.37
2.067,0.26,0.14,-0.23,0.37
2.077,0.57,0.49,-0.43,0.87
2.088,0.31,0.20,0.57,0.68
2.097,0.00,0.13,-0.52,0.54
2.108,-0.38,-0.13,0.26,0.48
2.118,-0.28,0.05,-0.07,0.30
2.128,-0.29,0.05,0.45,0.54
2.138,-0.22,0.27,-0.23,0.41
2.148,0.06,0.12,-0.03,0.14
2.158,0.03,-0.08,-0.10,0.13
2.168,0.05,-0.38,-0.14,0.41
2.178,0.17,-0.49,-0.05,0.52
2.188,0.13,-0.32,0.20,0.40
2.198,0.25,0.26,-0.41,0.55
2.208,0.57,0.58,-0.21,0.83
2.218,0.30,0.13,0.51,0.61
2.229,0.14,-0.09,-0.49,0.52
2.239,-0.39,-0.23,0.19,0.49
2.249,-0.46,0.05,0.12,0.48
2.259,-0.29,0.25,0.26,0.46
2.269,-0.21,0.29,-0.03,0.36
2.279,0.01,0.14,-0.21,0.25
2.289,0.08,-0.20,-0.02,0.21
2.299,0.15,-0.29,-0.19,0.38
2.309,0.18,-0.44,-0.09,0.48
2.319,0.04,-0.37,0.23,0.44
2.329,0.25,0.11,-0.35,0.44
2.340,0.62,0.49,-0.28,0.84
2.350,0.42,0.25,0.34,0.60
2.360,-0.16,0.11,-0.28,0.34
2.370,-0.34,-0.24,0.13,0.44
2.380,-0.56,0.06,-0.03,0.56
2.390,-0.13,0.29,0.38,0.49
2.400,0.02,0.21,0.01,0.21
2.410,0.02,-0.02,-0.33,0.33
2.420,-0.01,-0.29,-0.00,0.29
2.430,0.05,-0.32,-0.04,0.32
2.440,-0.00,-0.16,-0.21,0.26
2.450,0.11,-0.35,0.31,0.48
2.461,0.32,0.01,-0.43,0.54
2.471,0.55,0.48,-0.29,0.79
2.481,0.56,0.35,0.11,0.67
2.491,-0.13,0.08,0.18,0.24
2.501,-0.27,-0.18,-0.27,0.43
2.511,-0.52,-0.15,0.24,0.59
2.521,-0.22,0.14,0.40,0.48
2.531,-0.22,0.46,-0.24,0.56
2.541,0.11,-0.05,0.06,0.13
2.551,0.09,-0.24,-0.23,0.34
2.561,-0.03,-0.25,-0.06,0.25
2.572,0.13,-0.17,0.00,0.22
2.582,0.09,-0.32,0.14,0.36
2.592,0.26,-0.11,-0.39,0.48
2.602,0.54,0.31,-0.15,0.64
2.612,0.52,0.28,0.05,0.59
2.622,0.04,0.06,0.06,0.09
2.632,-0.30,-0.10,-0.04,0.32
2.642,-0.81,0.39,0.10,0.90
2.652,-0.25,0.23,0.38,0.51
2.662,-0.18,0.21,-0.15,0.32
2.672,0.19,-0.17,-0.07,0.26
2.682,0.25,-0.46,-0.10,0.53
2.693,0.04,-0.38,-0.08,0.39
2.703,-0.11,-0.14,0.02,0.17
2.713,-0.02,-0.04,0.14,0.15
2.723,0.41,-0.04,-0.42,0.59
2.733,0.48,0.33,-0.14,0.60
2.743,0.65,0.26,0.05,0.70
2.753,0.05,0.04,0.28,0.29
2.763,-0.35,-0.05,-0.32,0.47
2.774,-0.73,0.12,0.28,0.79
2.783,-0.25,0.08,0.32,0.41
2.793,-0.18,0.26,-0.22,0.38
2.804,0.06,0.15,-0.10,0.19
2.814,0.18,-0.40,0.02,0.44
2.824,0.04,-0.40,-0.29,0.49
2.834,0.02,-0.21,-0.01,0.21
2.844,0.05,-0.03,0.31,0.32
2.854,0.44,0.04,-0.59,0.74
2.864,0.52,0.24,-0.20,0.60
2.874,0.51,0.09,0.47,0.70
2.884,0.04,0.00,-0.34,0.34
2.894,-0.47,-0.07,0.08,0.49
2.904,-0.49,0.13,0.15,0.53
2.914,-0.41,0.13,0.22,0.48
2.924,-0.09,0.24,-0.06,0.26
2.935,0.19,0.09,-0.07,0.23
2.945,0.16,-0.28,-0.13,0.35
2.955,-0.01,-0.44,-0.13,0.46
2.965,-0.03,-0.23,-0.08,0.25
2.975,0.01,-0.02,0.03,0.04
2.985,0.33,0.13,-0.18,0.40
2.995,0.69,0.19,-0.30,0.78
3.005,0.25,0.09,0.57,0.63
3.015,0.22,-0.01,-0.56,0.60
3.025,-0.39,-0.14,0.17,0.45
3.035,-0.30,-0.01,0.30,0.43
3.045,-0.41,0.25,0.10,0.49
3.056,-0.33,0.31,0.07,0.46
3.066,-0.05,0.07,-0.16,0.18
3.076,0.08,-0.17,-0.13,0.23
3.086,0.25,-0.50,0.03,0.56
3.096,0.10,-0.24,-0.41,0.48
3.106,0.22,-0.11,0.33,0.41
3.116,0.27,0.24,-0.05,0.36
3.126,0.60,0.32,-0.45,0.82
3.136,0.22,0.12,0.35,0.43
3.146,-0.06,-0.06,-0.05,0.09
3.156,-0.41,-0.04,-0.36,0.55
3.166,-0.44,0.08,0.68,0.81
3.177,-0.15,0.17,0.04,0.23
3.187,-0.23,0.25,-0.28,0.44
3.197,0.10,-0.10,0.13,0.19
3.207,0.11,-0.14,-0.36,0.40
3.217,0.14,-0.43,0.11,0.46
3.227,0.14,-0.28,-0.25,0.40
3.237,0.05,-0.12,0.00,0.14
3.247,0.32,0.31,-0.08,0.45
3.257,0.54,0.21,0.18,0.61
3.267,0.29,0.08,-0.32,0.44
3.277,-0.10,-0.04,0.03,0.11
3.288,-0.27,-0.04,0.00,0.28
3.297,-0.51,0.26,0.30,0.64
3.308,-0.32,0.15,0.19,0.40
3.318,-0.26,0.18,-0.35,0.47
3.328,0.19,-0.20,0.11,0.30
3.338,0.11,-0.18,-0.22,0.30
3.348,0.13,-0.28,-0.16,0.35
3.358,0.18,-0.29,-0.11,0.36
3.368,0.06,-0.11,0.05,0.13
3.378,0.46,0.21,-0.05,0.51
3.388,0.46,0.28,0.21,0.58
3.398,0.25,0.12,-0.35,0.44
3.409,-0.29,0.12,-0.02,0.32
3.418,-0.41,-0.11,0.35,0.56
3.429,-0.45,0.13,-0.04,0.47
3.439,-0.29,0.20,0.42,0.55
3.449,0.06,0.26,-0.57,0.63
3.459,0.31,-0.56,0.02,0.63
3.469,-0.01,-0.23,-0.29,0.37
3.479,0.06,-0.03,0.03,0.07
3.489,0.11,-0.24,-0.16,0.31
3.499,0.13,-0.15,-0.10,0.22
3.509,0.46,0.15,0.11,0.50
3.519,0.53,0.35,-0.08,0.64
3.530,0.17,0.23,-0.13,0.31
3.540,-0.28,0.00,-0.04,0.28
3.550,-0.38,-0.11,0.18,0.44
3.560,-0.42,0.17,0.18,0.49
3.570,-0.35,0.34,0.01,0.49
3.580,0.00,-0.00,-0.11,0.11
3.590,0.11,-0.28,-0.27,0.40
3.600,0.22,-0.36,0.12,0.44
3.610,0.20,-0.21,-0.28,0.40
3.620,0.13,-0.28,-0.05,0.31
3.630,0.28,0.03,-0.10,0.30
3.640,0.36,0.21,0.31,0.52
3.651,0.39,0.31,-0.31,0.59
3.661,0.09,0.09,-0.08,0.15
3.671,-0.43,0.14,0.00,0.46
3.681,-0.49,0.05,0.26,0.56
3.691,-0.35,0.15,0.19,0.42
3.701,-0.16,0.34,-0.24,0.45
3.711,0.31,-0.23,0.06,0.39
3.721,0.09,-0.40,-0.22,0.47
3.731,-0.04,-0.31,-0.18,0.36
3.741,0.05,-0.19,-0.01,0.19
3.751,0.22,-0.05,-0.13,0.26
3.762,0.44,0.03,0.02,0.44
3.772,0.40,0.16,0.23,0.49
3.782,0.25,0.33,-0.41,0.58
3.792,-0.10,0.20,0.17,0.28
3.802,-0.27,0.01,-0.06,0.27
3.812,-0.54,0.04,0.47,0.72
3.822,-0.24,0.22,-0.10,0.34
3.832,-0.29,0.31,-0.14,0.45
3.842,0.27,-0.21,0.12,0.36
3.852,0.06,-0.38,-0.35,0.52
3.862,0.26,-0.47,-0.04,0.54
3.872,0.21,-0.18,-0.04,0.28
3.882,0.04,0.09,-0.15,0.18
3.893,0.25,0.01,0.10,0.27
3.903,0.43,0.17,0.09,0.46
3.913,0.15,0.28,-0.17,0.36
3.923,0.11,0.22,-0.09,0.27
3.933,-0.39,-0.04,0.20,0.44
3.943,-0.28,-0.11,0.18,0.35
3.953,-0.37,0.22,0.02,0.43
3.963,-0.01,0.28,-0.02,0.29
3.974,0.05,-0.01,-0.19,0.19
3.983,0.29,-0.54,-0.02,0.61
3.993,-0.03,-0.48,-0.22,0.53
4.003,0.11,-0.21,-0.09,0.25
4.014,0.11,0.06,0.04,0.13
4.024,0.45,0.22,-0.07,0.50
4.034,0.45,0.21,0.23,0.55
4.044,0.23,0.21,-0.39,0.50
4.054,-0.32,0.01,0.13,0.35
4.064,-0.22,0.01,-0.08,0.23
4.074,-0.30,-0.07,0.49,0.57
4.084,-0.31,0.25,-0.07,0.40
4.094,-0.15,0.24,-0.11,0.30
4.104,-0.02,-0.00,-0.07,0.07
4.114,0.20,-0.40,-0.07,0.45
4.125,0.04,-0.45,-0.18,0.49
4.135,0.22,-0.30,-0.06,0.38
4.145,0.25,0.06,-0.05,0.27
4.155,0.34,0.34,0.17,0.51
4.165,0.50,0.19,-0.04,0.54
4.175,0.04,0.15,-0.21,0.26
4.185,-0.28,0.05,-0.06,0.29
4.195,-0.20,0.03,0.12,0.24
4.205,-0.25,-0.05,0.39,0.46
4.215,-0.29,0.28,-0.25,0.48
4.225,0.03,0.18,0.07,0.20
4.235,0.14,-0.09,-0.04,0.17
4.246,-0.14,-0.23,-0.31,0.41
4.256,-0.02,-0.44,0.09,0.45
4.266,0.29,-0.29,-0.21,0.46
4.276,0.25,0.08,0.00,0.26
4.286,0.43,0.41,0.10,0.60
4.296,0.43,0.23,-0.04,0.49
4.306,0.07,0.03,-0.28,0.30
4.316,-0.16,-0.12,0.06,0.21
4.326,-0.28,-0.06,0.08,0.30
4.336,-0.24,0.21,0.18,0.36
4.346,-0.35,0.23,0.16,0.44
4.356,-0.25,0.30,-0.43,0.58
4.367,0.17,-0.14,0.22,0.31
4.377,0.19,-0.28,-0.25,0.42
4.387,0.13,-0.49,-0.08,0.51
4.397,0.16,-0.39,-0.10,0.43
4.407,0.15,0.06,-0.10,0.19
4.417,0.47,0.32,0.28,0.64
4.427,0.33,0.41,-0.16,0.55
4.437,0.02,-0.01,-0.14,0.14
4.447,-0.20,-0.12,-0.09,0.25
4.457,-0.21,-0.08,0.12,0.26
4.467,-0.41,0.30,0.32,0.60
4.477,-0.21,0.34,-0.07,0.41
4.488,0.11,0.01,-0.02,0.11
4.498,-0.00,-0.19,-0.25,0.31
4.508,0.24,-0.30,-0.11,0.40
4.518,0.04,-0.24,0.08,0.26
4.528,0.05,-0.23,-0.33,0.40
4.538,0.10,-0.11,0.18,0.24
4.548,0.57,0.34,-0.12,0.67
4.558,0.27,0.38,0.16,0.49
4.568,0.29,0.02,-0.27,0.40
4.578,-0.24,-0.28,0.05,0.38
4.589,-0.32,-0.19,0.06,0.38
4.598,-0.27,0.12,0.36,0.47
4.609,-0.39,0.63,-0.04,0.74
4.619,0.08,0.19,0.03,0.21
4.629,-0.12,-0.27,-0.15,0.33
4.639,0.10,-0.31,-0.29,0.44
4.649,0.13,-0.21,0.12,0.28
4.659,0.23,-0.21,-0.16,0.36
4.669,0.21,-0.16,-0.01,0.27
4.679,0.33,0.13,-0.01,0.36
4.689,0.34,0.29,0.11,0.46
4.699,0.31,0.21,-0.27,0.46
4.709,-0.15,-0.12,0.01,0.19
4.719,-0.33,-0.16,0.03,0.37
4.730,-0.47,0.06,0.35,0.59
4.740,-0.29,0.49,-0.02,0.57
4.750,-0.11,0.38,-0.06,0.41
4.760,0.14,-0.22,-0.11,0.29
4.770,0.21,-0.42,-0.20,0.51
4.780,0.05,-0.31,0.03,0.32
4.790,0.10,-0.06,-0.23,0.26
4.800,0.20,-0.07,0.01,0.21
4.810,0.31,0.12,0.10,0.35
4.820,0.45,0.19,-0.04,0.49
4.830,0.30,0.21,-0.23,0.43
4.841,-0.14,-0.06,0.09,0.18
4.851,-0.49,-0.20,0.06,0.53
4.861,-0.32,0.02,0.31,0.44
4.871,-0.37,0.45,-0.05,0.59
4.881,-0.08,0.41,-0.11,0.43
4.891,0.21,-0.25,-0.01,0.33
4.901,-0.00,-0.40,-0.30,0.50
4.911,0.19,-0.30,0.05,0.36
4.921,0.08,-0.03,-0.18,0.20
4.931,0.15,-0.02,-0.06,0.17
4.941,0.52,-0.02,0.07,0.53
4.952,0.34,0.18,-0.06,0.39
4.962,0.32,0.05,-0.15,0.36
4.972,-0.21,0.00,0.02,0.21
4.982,-0.31,-0.16,0.06,0.35
4.992,-0.48,0.03,0.31,0.57
5.002,-0.32,0.35,0.06,0.47
5.012,-0.09,0.37,0.04,0.38
5.022,0.18,-0.03,-0.03,0.18
5.032,0.12,-0.54,-0.44,0.71
5.042,-0.02,-0.37,-0.14,0.39
5.052,0.27,0.04,-0.23,0.36
5.062,0.30,0.13,0.07,0.34
5.073,0.29,0.02,0.24,0.37
5.083,0.51,-0.05,0.08,0.52
5.093,0.02,0.12,-0.57,0.59
5.103,-0.12,-0.10,0.29,0.33
5.113,-0.21,0.00,0.02,0.21
5.123,-0.44,0.10,0.29,0.53
5.133,-0.35,0.30,0.06,0.47
5.143,-0.16,0.16,-0.18,0.28
5.153,0.19,-0.07,-0.13,0.24
5.163,0.28,-0.31,0.04,0.42
5.173,0.05,-0.36,-0.24,0.44
5.183,0.14,-0.20,-0.12,0.27
5.194,0.34,0.12,0.01,0.36
5.204,0.39,0.18,0.22,0.48
5.214,0.40,0.10,-0.17,0.45
5.224,-0.13,0.08,-0.10,0.18
5.234,-0.20,-0.04,-0.06,0.21
5.244,-0.31,0.09,0.22,0.39
5.254,-0.22,-0.02,0.36,0.42
5.264,-0.35,0.31,-0.31,0.56
5.274,0.03,0.10,0.07,0.13
5.284,0.14,-0.11,-0.12,0.21
5.294,0.08,-0.27,-0.26,0.38
5.304,0.17,-0.38,-0.02,0.42
5.315,0.05,-0.17,-0.15,0.23
5.325,0.38,0.10,0.02,0.40
5.335,0.43,0.35,0.20,0.59
5.345,0.33,0.07,-0.21,0.40
5.355,0.05,-0.07,-0.24,0.26
5.365,-0.27,-0.12,0.22,0.37
5.375,-0.37,0.10,0.11,0.40
5.385,-0.34,0.28,0.23,0.50
5.395,-0.24,0.27,-0.13,0.39
5.405,-0.03,-0.08,-0.16,0.18
5.415,0.08,-0.22,-0.04,0.24
5.425,0.22,-0.22,-0.21,0.38
5.436,0.26,-0.42,0.05,0.49
5.446,-0.01,-0.11,-0.28,0.30
5.456,0.50,0.09,0.12,0.52
5.466,0.36,0.35,0.20,0.54
5.476,0.31,0.15,-0.31,0.46
5.486,-0.08,-0.06,-0.13,0.17
5.496,-0.25,-0.16,0.25,0.39
5.506,-0.41,0.13,0.12,0.45
5.516,-0.36,0.45,0.19,0.61
5.526,-0.08,0.21,-0.15,0.27
5.537,0.08,-0.27,-0.26,0.38
5.546,0.18,-0.38,0.06,0.43
5.557,0.07,-0.11,-0.28,0.30
5.566,0.08,-0.26,-0.04,0.27
5.577,0.12,-0.17,-0.07,0.22
5.587,0.39,0.10,0.13,0.42
5.597,0.45,0.35,-0.07,0.58
5.607,0.37,0.19,-0.10,0.43
5.617,-0.12,-0.07,-0.03,0.14
5.627,-0.44,-0.13,0.10,0.47
5.637,-0.42,0.07,0.23,0.49
5.647,-0.36,0.53,0.00,0.64
5.657,-0.01,0.12,-0.04,0.13
5.667,0.03,-0.26,-0.28,0.38
5.678,0.21,-0.42,-0.03,0.47
5.688,0.15,-0.22,-0.10,0.29
5.698,0.13,-0.14,-0.14,0.24
5.708,0.34,-0.16,0.01,0.38
5.718,0.26,0.20,0.01,0.33
5.728,0.37,0.28,0.06,0.47
5.738,0.22,0.22,-0.15,0.35
5.748,-0.24,-0.01,-0.05,0.24
5.758,-0.49,0.02,0.19,0.53
5.768,-0.32,0.12,0.27,0.44
5.778,-0.27,0.39,-0.04,0.48
5.788,0.14,-0.01,-0.17,0.22
5.798,0.02,-0.34,0.03,0.34
5.809,0.31,-0.43,-0.24,0.58
5.819,0.00,-0.22,-0.08,0.24
5.829,-0.01,0.02,-0.12,0.12
5.839,0.40,-0.08,0.03,0.41
5.849,0.34,0.16,0.19,0.42
5.859,0.50,0.24,-0.33,0.64
5.869,0.08,0.20,0.05,0.22
5.879,-0.29,0.07,0.02,0.30
5.889,-0.47,-0.01,0.19,0.51
5.899,-0.43,0.14,0.28,0.53
5.909,-0.15,0.40,-0.34,0.55
5.920,0.04,0.00,0.15,0.15
5.930,0.26,-0.43,-0.22,0.55
5.940,-0.07,-0.42,-0.30,0.52
5.950,0.27,-0.31,0.03,0.41
5.960,0.14,0.03,-0.16,0.22
5.970,0.35,-0.01,-0.01,0.35
5.980,0.41,0.19,0.10,0.46
5.990,0.24,0.27,-0.07,0.37
6.000,0.05,0.25,-0.15,0.29
6.010,-0.14,-0.03,0.05,0.16
6.020,-0.38,-0.15,0.21,0.46
6.031,-0.26,0.08,0.12,0.29
6.041,-0.33,0.31,-0.04,0.45
6.051,-0.02,0.21,-0.24,0.32
6.061,0.19,-0.34,0.06,0.39
6.071,0.16,-0.51,-0.32,0.62
6.081,0.11,-0.38,-0.17,0.43
6.091,0.12,0.01,0.10,0.15
6.101,0.30,0.25,-0.10,0.40
6.111,0.45,0.12,0.23,0.52
6.121,0.34,0.23,-0.29,0.51
6.131,0.01,0.11,-0.04,0.12
6.142,-0.24,-0.02,0.10,0.26
6.152,-0.33,-0.15,0.22,0.42
6.162,-0.49,0.21,0.12,0.55
6.172,-0.17,0.37,-0.04,0.41
6.182,0.11,0.03,-0.08,0.14
6.192,0.05,-0.26,-0.18,0.32
6.202,0.27,-0.56,-0.08,0.63
6.212,0.09,-0.30,-0.20,0.38
6.222,0.24,-0.06,0.01,0.24
6.232,0.40,0.29,0.02,0.49
6.242,0.38,0.25,0.11,0.46
6.252,0.21,0.11,-0.24,0.34
6.263,-0.06,0.04,-0.06,0.09
6.273,-0.28,0.02,0.02,0.28
6.283,-0.26,-0.08,0.30,0.41
6.293,-0.32,0.09,0.20,0.38
6.303,-0.23,0.39,-0.31,0.55
6.313,0.13,0.06,0.16,0.21
6.323,0.19,-0.24,-0.16,0.35
6.333,0.02,-0.47,-0.25,0.53
6.343,0.11,-0.37,0.02,0.38
6.353,0.22,0.02,-0.15,0.26
6.363,0.50,0.31,0.18,0.61
6.374,0.39,0.38,-0.14,0.56
6.384,0.09,-0.02,-0.14,0.17
6.394,-0.09,-0.14,-0.06,0.18
6.404,-0.11,-0.12,-0.07,0.17
6.414,-0.32,0.15,0.38,0.52
6.424,-0.32,0.22,0.20,0.44
6.434,-0.29,0.30,-0.33,0.53
6.444,-0.03,-0.00,0.10,0.10
6.454,0.28,-0.23,-0.15,0.39
6.464,0.11,-0.40,-0.07,0.42
6.474,0.32,-0.46,-0.23,0.60
6.484,0.09,-0.14,0.10,0.19
6.494,0.30,0.31,0.02,0.43
6.505,0.33,0.46,0.03,0.57
6.515,0.28,0.10,-0.10,0.31
6.525,-0.08,-0.07,-0.19,0.22
6.535,-0.19,-0.13,0.02,0.23
6.545,-0.34,0.06,0.27,0.44
6.555,-0.24,0.24,0.20,0.40
6.565,-0.06,0.20,-0.15,0.25
6.575,-0.03,-0.08,-0.14,0.16
6.585,0.09,-0.25,-0.13,0.30
6.595,0.08,-0.21,-0.01,0.22
6.605,0.12,-0.25,-0.15,0.32
6.615,0.09,-0.18,-0.16,0.26
6.625,0.45,0.06,0.27,0.53
6.636,0.43,0.44,-0.16,0.64
6.646,0.21,0.23,-0.08,0.32
6.656,0.04,-0.29,0.01,0.29
6.666,-0.36,-0.22,-0.22,0.48
6.676,-0.20,-0.06,0.43,0.48
6.686,-0.35,0.50,0.13,0.63
6.696,-0.24,0.41,-0.17,0.51
6.706,-0.00,-0.09,-0.16,0.18
6.716,0.16,-0.36,-0.09,0.41
6.726,0.11,-0.27,-0.12,0.32
6.736,0.11,-0.16,-0.14,0.24
6.747,0.26,-0.20,0.00,0.33
6.757,0.27,0.04,0.09,0.29
6.767,0.45,0.22,0.01,0.50
6.777,0.35,0.34,-0.20,0.52
6.787,-0.17,0.01,-0.01,0.17
6.797,-0.29,-0.29,-0.06,0.41
6.807,-0.40,-0.11,0.32,0.52
6.817,-0.17,0.36,0.11,0.41
6.827,-0.18,0.49,-0.05,0.53
6.837,0.04,-0.08,-0.12,0.15
6.847,0.06,-0.32,-0.17,0.37
6.858,0.09,-0.32,-0.03,0.34
6.867,0.06,-0.14,-0.18,0.24
6.878,0.19,-0.06,-0.10,0.22
6.888,0.43,-0.02,0.16,0.46
6.898,0.35,0.18,-0.05,0.40
6.908,0.39,0.19,-0.20,0.48
6.918,0.02,0.15,-0.02,0.15
6.928,-0.26,-0.29,0.07,0.40
6.938,-0.34,-0.12,0.15,0.39
6.948,-0.40,0.35,0.28,0.60
6.958,-0.22,0.61,-0.24,0.69
6.968,-0.06,0.07,-0.07,0.12
6.978,0.21,-0.57,-0.03,0.61
6.989,0.08,-0.45,-0.32,0.55
6.998,0.14,-0.10,0.05,0.18
7.009,0.17,0.10,-0.07,0.21
7.019,0.45,-0.02,-0.03,0.45
7.029,0.37,0.11,0.13,0.41
7.039,0.35,0.16,-0.29,0.48
7.049,-0.10,0.10,0.07,0.16
7.059,-0.22,-0.10,-0.06,0.25
7.069,-0.29,-0.26,0.31,0.49
7.079,-0.51,0.35,0.08,0.62
7.089,-0.10,0.53,-0.05,0.54
7.100,-0.03,0.14,-0.13,0.19
7.110,0.27,-0.57,-0.03,0.63
7.120,-0.03,-0.47,-0.23,0.53
7.130,0.13,-0.17,-0.05,0.22
7.140,0.13,0.12,-0.00,0.18
7.150,0.37,0.12,-0.01,0.39
7.160,0.39,0.04,0.21,0.45
7.170,0.40,0.07,-0.39,0.56
7.180,-0.03,0.00,0.04,0.05
7.190,-0.15,-0.11,0.02,0.18
7.200,-0.27,-0.11,0.20,0.36
7.210,-0.68,0.42,0.12,0.80
7.220,-0.29,0.45,-0.09,0.54
7.231,0.14,-0.05,-0.14,0.20
7.241,0.10,-0.37,-0.11,0.39
7.251,0.26,-0.41,-0.16,0.51
7.261,0.12,-0.25,-0.03,0.28
7.271,0.36,0.15,-0.48,0.62
7.281,0.15,0.22,1.00,1.03
7.291,0.63,0.09,-0.69,0.94
7.301,0.08,-0.03,-0.08,0.12
7.311,0.08,-0.10,0.14,0.19
7.321,-0.14,-0.06,-0.15,0.21
7.331,-0.55,0.07,0.46,0.72
7.342,-0.40,0.41,-0.04,0.57
7.352,-0.28,0.38,-0.21,0.52
7.362,0.26,-0.14,0.10,0.31
7.372,0.09,-0.35,-0.32,0.48
7.382,0.24,-0.44,-0.10,0.51
7.392,0.02,-0.19,-0.00,0.19
7.402,0.29,0.12,-0.10,0.33
7.412,0.36,0.33,0.26,0.55
7.422,0.44,0.17,-0.21,0.52
7.432,0.16,-0.07,-0.09,0.20
7.442,-0.04,-0.27,-0.01,0.27
7.452,-0.14,-0.16,-0.00,0.21
7.462,-0.66,0.41,0.33,0.85
7.473,-0.31,0.54,-0.01,0.62
7.483,-0.28,0.22,-0.32,0.48
7.493,0.36,-0.34,0.07,0.50
7.503,0.04,-0.30,-0.33,0.45
7.513,0.32,-0.50,0.00,0.59
7.523,0.17,-0.26,-0.07,0.32
7.533,0.25,0.16,-0.20,0.36
7.543,0.47,0.33,0.31,0.65
7.553,0.42,0.28,-0.25,0.57
7.563,-0.02,-0.06,-0.04,0.08
7.573,-0.07,-0.31,0.02,0.32
7.584,-0.36,-0.09,0.11,0.39
7.594,-0.58,0.59,0.20,0.85
7.604,-0.24,0.46,0.03,0.52
7.614,-0.07,-0.00,-0.40,0.40
7.624,0.31,-0.49,0.18,0.61
7.634,0.17,-0.33,-0.31,0.48
7.644,0.04,-0.33,-0.15,0.37
7.654,0.14,-0.20,0.08,0.25
7.664,0.25,0.16,-0.10,0.31
7.674,0.48,0.36,0.11,0.61
7.684,0.46,0.32,-0.15,0.58
7.694,0.02,-0.10,-0.07,0.13
7.705,-0.21,-0.33,0.01,0.40
7.715,-0.59,-0.05,0.23,0.63
7.725,-0.47,0.69,0.01,0.84
7.735,-0.24,0.48,0.04,0.53
7.745,0.08,-0.16,-0.24,0.30
7.755,0.17,-0.51,-0.16,0.56
7.765,0.30,-0.46,-0.05,0.55
7.775,0.19,-0.26,-0.18,0.37
7.785,0.26,-0.14,-0.12,0.32
7.795,0.24,0.17,0.27,0.40
7.805,0.40,0.36,-0.14,0.55
7.815,0.22,0.32,-0.18,0.43
7.826,0.06,-0.11,0.11,0.17
7.836,-0.22,-0.30,-0.07,0.38
7.846,-0.61,0.08,0.21,0.65
7.856,-0.43,0.59,0.18,0.75
7.866,-0.19,0.51,-0.18,0.57
7.876,0.18,-0.28,-0.07,0.34
7.886,0.15,-0.45,-0.27,0.55
7.896,0.30,-0.56,0.10,0.64
7.906,0.02,-0.21,-0.28,0.35
7.916,0.08,0.01,-0.09,0.12
7.926,0.37,0.19,0.30,0.52
7.937,0.46,0.30,-0.15,0.58
7.947,0.32,0.25,-0.22,0.46
7.957,0.03,-0.01,0.01,0.04
7.967,-0.21,-0.28,0.16,0.39
7.977,-0.63,0.08,0.07,0.64
7.987,-0.35,0.39,0.01,0.53
7.997,-0.27,0.37,-0.05,0.46
8.007,0.14,-0.10,-0.19,0.25
8.017,0.32,-0.55,-0.09,0.64
8.027,0.28,-0.61,-0.25,0.71
8.037,0.18,-0.37,-0.16,0.44
8.047,0.11,-0.18,-0.13,0.25
8.058,0.09,-0.21,-0.17,0.29
8.068,-0.04,-0.29,-0.13,0.32
8.078,0.13,-0.41,-0.20,0.48
8.088,0.11,-0.51,-0.07,0.53
8.098,-0.04,-0.36,-0.44,0.57
8.108,0.06,-0.13,0.01,0.15
8.118,0.11,0.57,-0.22,0.62
8.128,0.07,0.73,-0.10,0.74
8.138,0.59,0.76,0.46,1.06
8.148,-0.63,0.87,1.25,1.65
8.158,-0.14,0.48,-0.51,0.72
8.168,-0.63,0.47,0.01,0.79
8.179,0.77,0.73,0.25,1.10
8.189,0.46,0.29,-0.05,0.55
8.199,0.25,-1.21,0.13,1.24
8.209,0.31,-1.44,-0.61,1.60
8.219,-0.04,-0.64,0.28,0.69
8.229,-0.54,0.55,0.23,0.81
8.239,-0.36,0.88,0.12,0.96
8.249,-0.27,0.67,-0.07,0.73
8.259,-0.21,0.13,-0.18,0.30
8.269,0.31,-0.44,-0.07,0.55
8.279,0.21,-0.73,-0.09,0.77
8.289,0.16,-0.46,-0.30,0.57
8.300,0.16,-0.02,0.15,0.22
8.310,0.23,0.38,0.02,0.44
8.320,0.36,0.29,0.01,0.46
8.330,0.38,0.06,-0.20,0.44
8.340,-0.09,-0.05,0.06,0.12
8.350,-0.04,-0.19,-0.08,0.21
8.360,-0.41,0.11,0.18,0.46
8.370,-0.34,0.38,0.26,0.57
8.380,-0.13,0.40,-0.22,0.47
8.390,-0.03,0.03,-0.08,0.09
8.400,0.11,-0.21,-0.11,0.27
8.410,0.10,-0.46,-0.01,0.47
8.421,0.09,-0.45,-0.18,0.49
8.431,0.18,-0.07,-0.12,0.22
8.441,0.40,0.35,0.23,0.58
8.451,0.42,0.37,-0.04,0.56
8.461,0.30,0.00,-0.20,0.36
8.471,-0.04,-0.14,-0.13,0.20
8.481,0.00,-0.33,0.09,0.34
8.491,-0.28,0.03,0.23,0.37
8.501,-0.44,0.50,0.05,0.67
8.511,-0.24,0.39,-0.01,0.46
8.521,-0.05,-0.02,-0.15,0.16
8.531,0.03,-0.24,-0.26,0.35
8.542,0.19,-0.31,0.05,0.36
8.552,0.16,-0.45,-0.11,0.49
8.562,0.14,-0.19,-0.20,0.32
8.572,0.29,0.27,0.23,0.45
8.582,0.50,0.42,0.00,0.66
8.592,0.31,0.22,-0.19,0.42
8.602,-0.02,-0.17,-0.04,0.18
8.612,-0.18,-0.25,0.00,0.31
8.622,-0.15,0.02,0.22,0.27
8.632,-0.49,0.55,0.13,0.75
8.642,-0.12,0.37,-0.10,0.41
8.652,0.03,-0.14,-0.12,0.18
8.663,0.13,-0.48,-0.02,0.50
8.673,-0.05,-0.23,-0.27,0.36
8.683,0.10,-0.15,-0.05,0.19
8.693,0.20,-0.19,-0.03,0.27
8.703,0.25,0.21,-0.00,0.33
8.713,0.55,0.36,0.04,0.66
8.723,0.36,0.25,-0.08,0.45
8.733,0.03,-0.29,-0.12,0.31
8.743,-0.16,-0.37,-0.05,0.41
8.753,-0.36,-0.05,0.36,0.51
8.763,-0.44,0.62,0.09,0.77
8.773,-0.21,0.58,-0.13,0.63
8.784,0.05,-0.12,-0.03,0.14
8.794,0.02,-0.49,-0.20,0.53
8.804,0.11,-0.35,-0.10,0.38
8.814,0.03,-0.03,-0.10,0.11
8.824,0.26,-0.10,-0.02,0.28
8.834,0.31,0.04,0.03,0.31
8.844,0.46,0.22,0.02,0.51
8.854,0.32,0.26,-0.16,0.44
8.864,-0.03,0.00,-0.05,0.06
8.874,-0.28,-0.26,0.00,0.38
8.885,-0.29,-0.12,0.40,0.51
8.894,-0.46,0.40,-0.05,0.61
8.904,-0.04,0.55,-0.11,0.56
8.915,0.08,-0.09,0.02,0.12
8.925,0.12,-0.48,-0.32,0.59
8.935,0.01,-0.40,-0.04,0.40
8.945,0.07,-0.23,-0.03,0.24
8.955,0.07,0.09,-0.19,0.22
8.965,0.37,0.07,0.23,0.44
8.975,0.51,0.24,-0.09,0.57
8.985,0.39,0.17,-0.10,0.44
8.995,0.02,0.10,-0.09,0.14
9.006,-0.25,-0.27,0.09,0.38
9.016,-0.28,-0.13,0.27,0.41
9.026,-0.54,0.40,0.05,0.68
9.036,-0.07,0.48,-0.15,0.51
9.046,-0.00,0.05,-0.10,0.11
9.056,0.21,-0.53,-0.04,0.57
9.066,-0.03,-0.41,-0.27,0.50
9.076,0.15,-0.17,-0.06,0.23
9.086,0.18,0.09,0.08,0.22
9.096,0.35,0.10,-0.08,0.37
9.106,0.43,0.17,0.01,0.46
9.117,0.31,0.13,-0.05,0.34
9.127,0.03,0.07,-0.16,0.17
9.137,-0.15,-0.10,0.05,0.19
9.147,-0.37,-0.17,0.34,0.53
9.157,-0.39,0.27,0.00,0.47
9.167,-0.10,0.29,-0.09,0.31
9.177,0.04,0.05,-0.12,0.14
9.187,0.16,-0.37,-0.11,0.42
9.197,0.03,-0.44,-0.09,0.45
9.207,0.05,-0.26,-0.20,0.33
9.217,0.03,0.10,-0.08,0.13
9.227,0.43,0.29,0.09,0.53
9.237,0.51,0.10,0.12,0.53
9.248,0.36,0.12,-0.44,0.58
9.258,-0.01,-0.04,0.14,0.15
9.268,-0.27,-0.05,-0.01,0.28
9.278,-0.33,-0.07,0.33,0.47
9.288,-0.33,0.23,0.04,0.41
9.298,-0.23,0.24,-0.17,0.37
9.308,0.10,-0.13,-0.04,0.17
9.318,-0.02,-0.23,-0.19,0.29
9.328,0.10,-0.40,-0.06,0.42
9.338,0.13,-0.21,-0.27,0.36
9.348,0.24,-0.02,0.09,0.26
9.358,0.39,0.34,0.08,0.53
9.369,0.50,0.24,-0.10,0.57
9.379,0.20,0.05,-0.03,0.21
9.389,-0.07,-0.04,-0.17,0.19
9.399,-0.33,-0.05,0.14,0.36
9.409,-0.31,0.13,0.35,0.48
9.419,-0.30,0.27,-0.06,0.41
9.429,-0.02,0.14,-0.18,0.23
9.439,0.04,-0.22,-0.03,0.22
9.449,0.01,-0.31,-0.20,0.37
9.459,0.04,-0.34,-0.05,0.35
9.469,0.04,-0.22,-0.14,0.26
9.479,0.26,0.12,-0.05,0.29
9.490,0.49,0.41,0.19,0.66
9.499,0.46,0.32,-0.18,0.59
9.510,0.21,-0.09,-0.12,0.26
9.520,-0.19,-0.19,-0.10,0.28
9.530,-0.21,-0.18,0.25,0.37
9.540,-0.38,0.23,0.21,0.49
9.550,-0.35,0.41,-0.08,0.54
9.560,-0.04,0.10,-0.23,0.25
9.570,0.12,-0.31,0.09,0.35
9.580,0.11,-0.31,-0.23,0.40
9.590,0.03,-0.24,-0.19,0.30
9.600,0.25,-0.23,0.07,0.35
9.611,0.25,0.07,0.04,0.26
9.621,0.38,0.38,-0.10,0.55
9.631,0.48,0.28,-0.02,0.56
9.641,0.05,0.00,-0.05,0.07
9.651,-0.22,-0.11,-0.17,0.30
9.661,-0.33,-0.12,0.40,0.53
9.671,-0.41,0.43,-0.01,0.59
9.681,-0.17,0.38,0.02,0.42
9.691,0.03,-0.25,-0.25,0.36
9.701,0.16,-0.43,-0.21,0.51
9.711,0.14,-0.27,0.08,0.32
9.721,-0.08,-0.07,-0.32,0.34
9.732,0.13,-0.22,0.00,0.26
9.742,0.31,0.10,0.04,0.32
9.752,0.56,0.41,-0.08,0.70
9.762,0.46,0.33,0.07,0.56
9.772,0.07,-0.09,-0.22,0.25
9.782,-0.35,-0.12,0.00,0.37
9.792,-0.42,-0.07,0.52,0.67
9.802,-0.40,0.43,-0.13,0.61
9.812,-0.08,0.21,-0.03,0.23
9.822,0.18,-0.26,-0.35,0.48
9.833,0.13,-0.15,-0.46,0.51
9.842,0.31,0.43,-1.46,1.55
9.853,-0.56,0.69,-0.39,0.97
9.863,-0.27,1.77,-3.62,4.04
9.873,1.03,2.02,-3.65,4.30
9.883,0.59,-3.88,19.03,19.44
9.893,-0.13,2.77,-15.68,15.92
9.903,0.70,-2.50,7.92,8.33
9.913,-1.42,-0.49,-4.15,4.41
9.923,0.49,-1.51,3.21,3.58
9.933,-0.08,0.36,-1.16,1.22
9.943,-0.66,0.81,-0.38,1.11
9.953,0.35,0.29,0.94,1.04
9.963,-0.05,-0.26,-0.92,0.96
9.973,-0.07,-0.47,0.26,0.54
9.984,0.43,-0.40,-0.16,0.61
9.994,-0.22,-0.07,-0.25,0.34
10.004,0.45,0.12,0.17,0.50
10.014,0.50,0.35,0.05,0.61
10.024,0.33,0.28,-0.21,0.48
10.034,0.01,0.10,-0.12,0.16
10.044,-0.26,-0.25,0.09,0.37
10.054,-0.44,-0.01,0.22,0.50
10.064,-0.36,0.30,0.06,0.47
10.074,-0.03,0.32,-0.19,0.37
10.085,0.11,-0.16,-0.08,0.21
10.095,0.01,-0.37,-0.14,0.40
10.105,0.03,-0.39,-0.05,0.40
10.115,0.13,-0.13,-0.22,0.28
10.125,0.18,0.09,-0.02,0.20
10.135,0.42,0.06,0.22,0.47
10.145,0.34,0.22,-0.07,0.41
10.155,0.36,0.25,-0.23,0.49
10.165,-0.06,0.25,0.11,0.28
10.175,-0.24,-0.16,0.05,0.29
10.185,-0.26,-0.13,0.15,0.33
10.195,-0.29,0.21,0.07,0.37
10.206,-0.11,0.32,-0.09,0.35
10.215,0.02,-0.06,-0.17,0.18
10.225,0.15,-0.49,-0.16,0.54
10.236,-0.05,-0.47,-0.06,0.48
10.246,0.04,-0.20,-0.19,0.28
10.256,0.13,0.08,0.06,0.16
10.266,0.46,0.19,-0.01,0.50
10.276,0.47,0.18,0.08,0.51
10.286,0.26,0.16,-0.26,0.40
10.296,-0.07,0.09,-0.13,0.17
10.306,-0.27,-0.05,0.17,0.32
10.317,-0.26,-0.14,0.31,0.43
10.327,-0.39,0.33,-0.24,0.57
10.337,-0.10,0.38,-0.04,0.39
10.347,0.10,0.01,0.03,0.10
10.357,0.06,-0.46,-0.20,0.50
10.367,0.11,-0.47,-0.29,0.56
10.377,0.15,-0.21,0.07,0.27
10.387,0.24,0.12,-0.15,0.30
10.397,0.30,0.31,0.16,0.46
10.407,0.49,0.20,-0.01,0.53
10.417,0.14,0.01,-0.25,0.28
10.427,-0.16,-0.06,-0.08,0.18
10.438,-0.25,-0.02,0.15,0.30
10.448,-0.24,-0.05,0.20,0.32
10.458,-0.28,0.26,0.01,0.39
10.468,-0.06,0.26,-0.08,0.28
10.478,0.03,-0.03,-0.16,0.17
10.488,-0.00,-0.27,-0.13,0.30
10.498,0.20,-0.52,-0.03,0.55
10.508,-0.09,-0.20,-0.18,0.28
10.518,0.35,0.15,0.00,0.38
10.528,0.37,0.42,0.19,0.59
10.538,0.47,0.21,-0.13,0.53
10.548,0.14,-0.01,-0.18,0.23
10.559,-0.16,-0.20,-0.03,0.25
10.569,-0.21,-0.10,-0.02,0.23
10.579,-0.33,0.12,0.49,0.60
10.589,-0.25,0.29,-0.13,0.41
10.599,-0.15,0.30,-0.13,0.36
10.609,0.09,-0.04,-0.03,0.10
10.619,-0.07,-0.19,-0.20,0.29
10.629,0.18,-0.45,-0.12,0.50
10.639,0.18,-0.41,-0.13,0.46
10.649,0.27,0.02,-0.04,0.27
10.659,0.41,0.37,0.10,0.56
10.669,0.41,0.41,-0.13,0.59
10.679,0.11,-0.10,-0.00,0.15
10.690,-0.23,-0.19,-0.31,0.44
10.700,-0.24,-0.12,0.26,0.37
10.710,-0.19,0.30,0.26,0.44
10.720,-0.29,0.38,0.02,0.48
10.730,0.00,0.13,-0.19,0.23
10.740,-0.02,-0.20,-0.09,0.22
10.750,0.09,-0.31,-0.14,0.35
10.760,-0.00,-0.18,-0.15,0.23
10.770,0.19,-0.25,-0.10,0.33
10.780,0.13,-0.10,0.05,0.17
10.790,0.45,0.33,-0.16,0.58
10.801,0.47,0.39,0.29,0.68
10.811,0.30,0.06,-0.48,0.57
10.821,-0.25,-0.31,0.09,0.41
10.831,-0.29,-0.19,0.04,0.35
10.841,-0.38,0.18,0.25,0.49
10.851,-0.23,0.56,0.07,0.61
10.861,-0.01,0.19,-0.07,0.20
10.871,-0.07,-0.21,-0.25,0.33
10.881,0.06,-0.26,-0.05,0.27
10.891,0.09,-0.23,-0.02,0.25
10.901,0.09,-0.29,-0.33,0.45
10.911,0.31,-0.20,0.13,0.39
10.922,0.40,0.15,0.01,0.43
10.932,0.38,0.45,-0.14,0.61
10.942,0.30,0.15,0.07,0.35
10.952,-0.21,-0.05,-0.23,0.31
10.962,-0.38,-0.22,0.17,0.47
10.972,-0.30,0.01,0.32,0.44
10.982,-0.32,0.51,-0.08,0.61
10.992,0.03,0.35,-0.01,0.35
11.002,0.09,-0.31,-0.08,0.33
11.012,-0.02,-0.39,-0.36,0.53
11.022,0.11,-0.27,0.06,0.30
11.032,0.11,-0.07,-0.14,0.19
11.043,0.13,-0.06,-0.04,0.15
11.053,0.39,0.14,-0.09,0.42
11.063,0.52,0.26,0.23,0.62
11.073,0.26,0.21,-0.25,0.41
11.083,-0.15,-0.00,-0.10,0.18
11.093,-0.37,-0.12,0.28,0.48
11.103,-0.40,-0.01,0.16,0.43
11.113,-0.27,0.31,-0.06,0.41
11.123,-0.03,0.36,-0.15,0.40
11.133,0.10,-0.23,0.01,0.25
11.143,0.03,-0.50,-0.25,0.56
11.153,0.13,-0.28,-0.24,0.40
11.164,0.15,0.00,0.02,0.15
11.174,0.21,0.04,-0.16,0.27
11.184,0.32,0.06,0.19,0.38
11.194,0.43,0.24,-0.15,0.52
11.204,0.25,0.10,-0.12,0.30
11.214,-0.09,0.11,-0.07,0.16
11.224,-0.41,-0.09,0.12,0.43
11.234,-0.28,-0.04,0.22,0.35
11.244,-0.21,0.20,0.07,0.30
11.254,-0.08,0.26,-0.20,0.34
11.264,0.08,-0.11,-0.16,0.21
11.274,0.11,-0.53,0.00,0.54
11.285,-0.01,-0.33,-0.35,0.48
11.295,0.11,-0.09,0.01,0.14
11.305,0.21,0.15,-0.04,0.26
11.315,0.41,0.10,0.05,0.43
11.325,0.43,0.18,-0.04,0.47
11.335,0.31,0.09,-0.22,0.39
11.345,-0.19,0.01,-0.05,0.20
11.355,-0.34,-0.05,0.14,0.37
11.365,-0.35,-0.01,0.34,0.49
11.375,-0.35,0.30,-0.13,0.48
11.385,-0.10,0.22,-0.13,0.28
11.395,0.08,-0.08,-0.00,0.11
11.406,0.18,-0.39,-0.22,0.49
11.415,0.01,-0.31,-0.14,0.34
11.426,0.27,-0.11,-0.06,0.30
11.436,0.17,0.13,0.04,0.21
11.446,0.44,0.19,0.10,0.49
11.456,0.38,0.16,-0.17,0.44
11.466,0.07,0.06,-0.05,0.10
11.476,-0.15,-0.07,-0.15,0.22
11.486,-0.35,0.08,0.20,0.41
11.496,-0.33,0.06,0.33,0.48
11.507,-0.21,0.27,-0.27,0.43
11.517,-0.06,0.02,0.01,0.07
11.527,0.18,-0.16,-0.20,0.31
11.537,0.03,-0.32,-0.07,0.33
11.547,0.14,-0.32,-0.23,0.42
11.557,0.02,-0.05,-0.12,0.13
11.567,0.39,0.26,0.06,0.48
11.577,0.48,0.34,0.22,0.63
11.587,0.41,0.04,-0.31,0.51
11.597,-0.08,-0.08,-0.08,0.13
11.607,-0.24,-0.17,0.06,0.30
11.617,-0.35,0.08,0.23,0.42
11.627,-0.34,0.25,0.21,0.47
11.638,-0.25,0.27,-0.23,0.43
11.648,0.06,-0.12,-0.11,0.17
11.658,0.07,-0.25,-0.13,0.29
11.668,0.06,-0.15,-0.21,0.27
11.678,0.24,-0.37,0.02,0.45
11.688,0.12,-0.12,-0.26,0.31
11.698,0.32,0.16,0.19,0.40
11.708,0.51,0.37,-0.01,0.64
11.718,0.28,0.11,-0.11,0.31
11.728,-0.01,-0.04,-0.17,0.18
11.738,-0.33,-0.03,0.10,0.34
11.748,-0.47,0.25,0.27,0.60
11.758,-0.31,0.36,-0.01,0.47
11.769,-0.07,-0.00,-0.03,0.07
11.779,0.17,-0.33,-0.35,0.51
11.789,0.12,-0.32,-0.07,0.34
11.799,-0.06,-0.04,-0.05,0.09
11.809,0.05,-0.23,-0.17,0.29
11.819,0.14,-0.15,-0.09,0.22
11.829,0.49,0.21,0.11,0.55
11.839,0.56,0.38,-0.02,0.68
11.849,0.25,0.16,-0.17,0.35
11.859,-0.14,-0.11,-0.06,0.18
11.869,-0.47,-0.08,0.15,0.50
11.880,-0.35,0.09,0.33,0.49
11.890,-0.27,0.50,-0.13,0.58
11.900,0.03,0.06,-0.13,0.15
11.910,-0.04,-0.28,-0.15,0.32
11.920,0.14,-0.38,-0.10,0.41
11.930,0.06,-0.15,-0.17,0.23
11.940,0.13,-0.16,-0.09,0.22
11.950,0.27,-0.09,-0.07,0.29
11.960,0.32,0.19,0.16,0.41
11.970,0.55,0.37,-0.19,0.69
11.980,0.16,0.21,-0.02,0.27
11.990,-0.30,-0.05,-0.09,0.32
12.001,-0.40,-0.13,0.15,0.44
12.011,-0.40,0.13,0.37,0.56
12.021,-0.17,0.53,-0.35,0.66
12.031,0.20,-0.11,0.13,0.26
12.041,0.09,-0.41,-0.33,0.53
12.051,-0.10,-0.45,-0.09,0.47
12.061,0.11,-0.15,-0.12,0.22
12.071,0.03,0.03,-0.11,0.12
12.081,0.33,-0.01,0.00,0.33
12.091,0.43,0.18,0.03,0.47
12.101,0.52,0.32,-0.10,0.62
12.112,0.09,0.26,-0.06,0.28
12.122,-0.26,-0.11,-0.02,0.28
12.132,-0.52,-0.06,0.23,0.57
12.142,-0.32,0.19,0.10,0.38
12.152,-0.25,0.41,-0.14,0.50
12.162,0.03,0.06,-0.16,0.17
12.172,0.21,-0.40,-0.05,0.46
12.182,0.14,-0.41,-0.13,0.45
12.192,0.04,-0.24,-0.19,0.31
12.202,0.00,0.05,-0.03,0.06
12.212,0.40,0.05,0.04,0.41
12.222,0.43,0.16,0.08,0.47
12.232,0.45,0.19,-0.17,0.52
12.243,0.04,0.24,-0.18,0.30
12.253,-0.26,-0.02,0.17,0.31
12.263,-0.34,-0.14,0.24,0.44
12.273,-0.35,0.13,-0.09,0.39
12.283,-0.18,0.35,-0.02,0.39
12.293,0.01,0.18,-0.06,0.19
12.303,0.04,-0.38,-0.16,0.42
12.313,0.10,-0.50,-0.31,0.60
12.323,0.12,-0.30,0.01,0.32
12.333,0.17,0.06,-0.17,0.25
12.343,0.19,0.22,-0.00,0.29
12.354,0.58,0.18,0.14,0.63
12.364,0.30,0.22,-0.29,0.47
12.374,0.09,-0.02,-0.15,0.17
12.384,-0.21,-0.07,0.05,0.23
12.394,-0.22,-0.11,0.35,0.43
12.404,-0.74,0.28,-0.02,0.79
12.414,-0.01,0.40,-0.14,0.42
12.424,-0.02,0.13,0.15,0.20
12.434,0.02,-0.25,-0.34,0.42
12.444,0.12,-0.57,-0.04,0.59
12.454,0.04,-0.30,-0.12,0.33
12.464,0.21,0.05,-0.08,0.23
12.474,0.40,0.32,0.05,0.51
12.485,0.56,0.19,0.12,0.61
12.495,0.17,0.16,-0.33,0.40
12.505,-0.06,-0.05,-0.06,0.10
12.515,-0.25,0.01,0.01,0.25
12.525,-0.30,-0.02,0.27,0.41
12.535,-0.19,0.06,-0.01,0.20
12.545,-0.23,0.33,-0.16,0.43
12.555,0.03,0.09,0.04,0.10
12.565,0.01,-0.05,-0.32,0.32
12.575,0.07,-0.43,0.06,0.44
12.585,0.05,-0.36,-0.32,0.49
12.596,0.19,-0.09,0.03,0.21
12.606,0.35,0.43,-0.02,0.56
12.616,0.51,0.34,0.04,0.61
12.626,0.39,-0.01,-0.19,0.44
12.636,-0.15,-0.11,-0.17,0.25
12.646,-0.28,-0.19,0.08,0.35
12.656,-0.32,0.07,0.30,0.45
12.666,-0.30,0.24,0.04,0.38
12.676,-0.16,0.38,-0.26,0.48
12.686,-0.03,0.03,0.05,0.06
12.696,0.07,-0.19,-0.21,0.29
12.707,0.05,-0.30,-0.14,0.34
12.717,0.23,-0.42,-0.11,0.49
12.727,0.18,-0.13,-0.05,0.23
12.737,0.40,0.29,-0.03,0.49
12.747,0.47,0.48,0.04,0.67
12.757,0.23,0.11,-0.07,0.26
12.767,-0.13,-0.20,-0.29,0.37
12.777,-0.26,-0.15,0.04,0.30
12.787,-0.18,0.06,0.31,0.36
12.797,-0.31,0.32,0.06,0.45
12.807,-0.12,0.29,-0.11,0.34
12.818,-0.15,0.00,-0.17,0.22
12.827,0.11,-0.28,-0.03,0.30
12.837,0.08,-0.19,-0.25,0.33
12.848,0.10,-0.29,-0.05,0.31
12.858,0.18,-0.22,-0.07,0.29
12.868,0.33,0.18,-0.01,0.37
12.878,0.46,0.45,0.10,0.65
12.888,0.37,0.25,-0.23,0.51
12.898,-0.07,-0.25,-0.05,0.27
12.908,-0.25,-0.32,-0.03,0.41
12.918,-0.33,-0.01,0.34,0.47
12.928,-0.36,0.52,-0.01,0.63
12.938,-0.13,0.36,-0.01,0.39
12.948,-0.04,-0.13,-0.20,0.24
12.959,-0.01,-0.32,-0.16,0.36
12.969,0.21,-0.22,-0.00,0.30
12.979,0.19,-0.16,-0.17,0.30
12.989,0.09,-0.23,-0.03,0.25
12.999,0.34,0.08,-0.11,0.37
13.009,0.45,0.26,0.17,0.55
13.019,0.44,0.28,-0.28,0.59
13.029,-0.07,0.04,-0.02,0.09
13.039,-0.33,-0.02,-0.08,0.35
13.049,-0.44,-0.03,0.34,0.55
13.059,-0.25,0.25,0.05,0.35
13.070,-0.14,0.34,-0.16,0.40
13.080,0.08,-0.26,-0.03,0.27
13.090,0.03,-0.33,-0.29,0.44
13.100,0.07,-0.24,-0.05,0.26
13.110,0.07,-0.01,-0.10,0.12
13.120,0.15,-0.13,0.15,0.24
13.130,0.39,0.08,-0.41,0.57
13.140,0.52,0.25,0.05,0.57
13.150,0.45,0.24,0.00,0.51
13.160,0.04,-0.01,0.03,0.05
13.170,-0.51,0.13,-0.26,0.59
13.180,-0.52,0.09,0.55,0.77
13.191,-0.30,0.10,-0.01,0.31
13.201,-0.19,0.30,-0.33,0.48
13.211,0.13,-0.15,0.10,0.22
13.221,0.23,-0.45,-0.27,0.58
13.231,-0.06,-0.33,-0.11,0.36
13.241,0.08,-0.06,-0.18,0.20
13.251,0.04,0.04,0.29,0.29
13.261,0.49,0.09,-0.63,0.81
13.271,0.56,0.18,0.18,0.62
13.281,0.34,0.20,-0.02,0.40
13.291,-0.06,-0.00,-0.07,0.10
13.302,-0.56,0.16,-0.18,0.61
13.312,-0.37,-0.02,0.52,0.64
13.322,-0.26,0.12,-0.09,0.30
13.332,-0.04,0.27,-0.08,0.28
13.342,0.16,-0.09,-0.11,0.21
13.352,0.08,-0.48,-0.13,0.50
13.362,0.01,-0.34,-0.11,0.36
13.372,0.10,-0.15,-0.17,0.24
13.382,0.05,0.01,0.17,0.17
13.392,0.41,0.24,-0.35,0.59
13.402,0.60,0.12,0.19,0.64
13.412,0.26,0.21,-0.19,0.38
13.422,-0.04,-0.04,-0.03,0.06
13.433,-0.40,0.13,-0.10,0.43
13.443,-0.44,0.01,0.48,0.65
13.453,-0.35,0.12,-0.11,0.39
13.463,-0.14,0.11,-0.13,0.22
13.473,0.09,-0.03,-0.09,0.13
13.483,0.11,-0.27,-0.13,0.32
13.493,0.14,-0.35,-0.17,0.41
13.503,0.08,-0.18,-0.13,0.23
13.513,0.22,0.07,-0.04,0.24
13.523,0.41,0.30,0.03,0.51
13.533,0.50,0.15,0.03,0.53
13.544,0.18,0.14,-0.30,0.37
13.554,-0.19,-0.05,-0.03,0.20
13.564,-0.33,0.00,0.05,0.33
13.574,-0.39,0.00,0.42,0.57
13.584,-0.28,0.32,-0.22,0.48
13.594,-0.06,0.18,-0.01,0.19
13.604,0.07,-0.16,-0.15,0.23
13.614,0.09,-0.33,-0.21,0.40
13.624,0.14,-0.44,0.00,0.46
13.634,0.09,-0.19,-0.19,0.28
13.644,0.28,0.13,0.00,0.31
13.654,0.42,0.41,0.10,0.59
13.664,0.43,0.21,-0.08,0.48
13.674,0.14,0.01,-0.18,0.23
13.685,-0.20,-0.10,-0.01,0.22
13.695,-0.39,0.04,0.13,0.41
13.705,-0.28,0.14,0.31,0.44
13.715,-0.32,0.29,-0.12,0.45
13.725,-0.12,0.06,-0.18,0.22
13.735,0.21,-0.25,-0.07,0.33
13.745,0.10,-0.24,-0.15,0.30
13.755,0.18,-0.33,-0.13,0.40
13.765,0.10,-0.22,-0.13,0.27
13.775,0.26,0.11,-0.02,0.29
13.786,0.44,0.33,0.15,0.57
13.796,0.46,0.29,-0.19,0.58
13.806,-0.02,0.09,-0.09,0.13
13.816,-0.36,0.04,-0.05,0.37
13.826,-0.46,0.06,0.29,0.55
13.836,-0.32,0.29,0.07,0.44
13.846,-0.09,0.09,0.05,0.13
13.856,0.01,-0.23,-0.39,0.45
13.866,0.23,-0.48,0.06,0.54
13.876,0.01,-0.10,-0.26,0.28
13.886,0.02,-0.15,-0.04,0.15
13.896,0.08,-0.13,-0.14,0.21
13.907,0.29,0.10,0.07,0.32
13.917,0.49,0.38,0.01,0.62
13.927,0.52,0.28,-0.17,0.61
13.937,-0.03,-0.02,0.06,0.07
13.947,-0.37,-0.12,-0.21,0.45
13.957,-0.39,-0.03,0.45,0.59
13.967,-0.41,0.44,-0.02,0.60
13.977,-0.19,0.22,-0.13,0.32
13.987,0.13,-0.19,-0.16,0.29
13.997,0.08,-0.38,-0.06,0.39
14.007,0.17,-0.28,-0.20,0.39
14.017,0.03,-0.17,-0.09,0.20
14.027,0.21,-0.20,-0.13,0.32
14.037,0.31,0.10,-0.00,0.33
14.048,0.44,0.34,0.14,0.57
14.058,0.39,0.25,-0.16,0.49
14.068,-0.19,0.07,-0.18,0.27
14.078,-0.47,-0.07,0.18,0.51
14.088,-0.39,0.04,0.33,0.52
14.098,-0.31,0.52,-0.27,0.67
14.108,-0.00,0.16,0.07,0.17
14.118,0.25,-0.37,-0.21,0.49
14.128,-0.01,-0.38,-0.19,0.42
14.138,0.13,-0.22,-0.08,0.27
14.149,0.02,-0.01,-0.09,0.10
14.159,0.17,-0.11,-0.05,0.21
14.169,0.32,0.10,0.01,0.34
14.179,0.53,0.31,0.07,0.62
14.189,0.40,0.25,-0.23,0.52
14.199,-0.27,0.11,-0.05,0.29
14.209,-0.46,-0.09,0.32,0.56
14.219,-0.49,0.04,0.02,0.50
14.229,-0.37,0.36,-0.09,0.52
14.239,0.02,0.19,0.02,0.19
14.249,0.19,-0.32,-0.19,0.42
14.259,0.25,-0.41,-0.18,0.51
14.270,0.05,-0.27,-0.06,0.28
14.280,0.19,-0.09,-0.12,0.24
14.290,0.17,-0.03,0.06,0.18
14.300,0.27,0.17,-0.06,0.33
14.310,0.51,0.23,-0.03,0.56
14.320,0.20,0.26,-0.09,0.34
14.330,-0.11,0.07,-0.09,0.16
14.340,-0.51,-0.16,0.25,0.59
14.350,-0.34,0.06,0.03,0.35
14.360,-0.35,0.32,0.04,0.48
14.370,0.09,0.28,-0.14,0.33
14.380,0.11,-0.21,-0.11,0.26
14.390,0.15,-0.57,-0.18,0.61
14.401,0.03,-0.39,-0.14,0.41
14.411,0.11,-0.05,-0.07,0.14
14.421,0.15,0.14,-0.02,0.21
14.431,0.49,0.14,0.11,0.52
14.441,0.42,0.26,-0.19,0.53
14.451,0.19,0.10,-0.05,0.22
14.461,-0.18,-0.01,-0.13,0.23
14.471,-0.39,-0.17,0.22,0.48
14.481,-0.33,0.06,0.14,0.36
14.491,-0.40,0.41,-0.04,0.57
14.501,-0.04,0.27,-0.14,0.31
14.512,0.08,-0.01,-0.12,0.14
14.522,0.21,-0.51,-0.00,0.55
14.532,0.03,-0.44,-0.32,0.54
14.542,0.22,-0.16,-0.02,0.27
14.552,0.29,0.18,0.08,0.35
14.562,0.42,0.35,-0.13,0.56
14.572,0.35,0.13,0.07,0.38
14.582,0.00,0.02,-0.31,0.31
14.592,-0.25,-0.10,-0.01,0.27
14.602,-0.32,-0.01,0.28,0.43
14.612,-0.22,0.07,0.19,0.30
14.622,-0.26,0.39,-0.17,0.50
14.633,-0.04,0.15,-0.02,0.16
14.643,0.08,-0.13,-0.24,0.28
14.653,0.06,-0.41,-0.05,0.42
14.663,0.19,-0.39,-0.20,0.47
14.673,0.12,-0.11,-0.03,0.17
14.683,0.20,0.27,-0.09,0.35
14.693,0.52,0.38,-0.13,0.65
14.703,0.30,0.07,0.03,0.31
14.713,0.01,-0.08,-0.15,0.17
14.723,-0.20,-0.12,-0.20,0.31
14.734,-0.35,0.08,0.38,0.53
14.744,-0.27,0.24,0.12,0.38
14.754,-0.39,0.31,-0.07,0.50
14.764,0.05,0.09,-0.26,0.28
14.774,0.06,-0.14,0.01,0.15
14.784,0.22,-0.24,-0.20,0.38
14.794,0.09,-0.46,-0.08,0.47
14.804,0.15,-0.28,-0.11,0.33
14.814,0.29,0.16,0.00,0.33
14.824,0.44,0.44,-0.12,0.63
14.834,0.32,0.24,0.07,0.41
14.844,0.07,-0.13,-0.13,0.19
14.854,-0.41,-0.17,-0.23,0.49
14.865,-0.32,0.02,0.33,0.46
14.875,-0.18,0.31,0.17,0.40
14.885,-0.22,0.30,-0.05,0.37
14.895,0.02,0.01,-0.28,0.28
14.905,-0.05,-0.26,0.02,0.27
14.915,0.07,-0.16,-0.21,0.27
14.925,0.08,-0.15,-0.07,0.19
14.935,0.21,-0.27,-0.11,0.36
14.945,0.22,0.04,0.04,0.23
14.955,0.58,0.36,-0.08,0.68
14.965,0.35,0.34,-0.02,0.49
14.975,0.08,-0.14,-0.15,0.22
14.986,-0.30,-0.27,-0.16,0.44
14.996,-0.47,-0.13,0.37,0.61
15.006,-0.24,0.36,0.04,0.44
15.016,-0.26,0.46,-0.04,0.53
15.026,0.11,-0.10,-0.10,0.18
15.036,-0.04,-0.34,-0.23,0.41
15.046,0.12,-0.21,-0.16,0.29
15.056,0.16,-0.07,-0.03,0.18
15.066,0.19,-0.25,-0.09,0.32
15.076,0.24,-0.02,-0.06,0.25
15.087,0.56,0.23,-0.19,0.64
15.097,0.31,0.30,0.12,0.45
15.107,0.01,0.10,-0.14,0.17
15.117,-0.47,0.01,-0.14,0.49
15.127,-0.36,-0.07,0.29,0.47
15.137,-0.13,0.08,0.21,0.26
15.147,-0.26,0.43,-0.20,0.54
15.157,0.15,-0.05,-0.07,0.18
15.167,0.09,-0.38,-0.19,0.44
15.177,0.04,-0.35,-0.10,0.36
15.187,-0.02,-0.12,-0.12,0.17
15.197,0.05,0.02,-0.16,0.17
15.207,0.36,-0.06,0.08,0.38
15.217,0.40,0.24,-0.05,0.47
15.227,0.53,0.23,-0.16,0.60
15.238,0.23,0.11,-0.06,0.26
15.248,-0.38,-0.15,-0.05,0.41
15.258,-0.53,-0.07,0.18,0.56
15.268,-0.37,0.15,0.27,0.48
15.278,-0.19,0.50,-0.15,0.56
15.288,-0.01,0.20,-0.09,0.22
15.298,0.15,-0.46,-0.13,0.50
15.308,0.09,-0.43,-0.27,0.52
15.318,0.15,-0.19,-0.05,0.24
15.328,0.14,0.12,-0.09,0.20
15.339,0.29,0.10,-0.05,0.31
15.349,0.38,0.12,0.11,0.41
15.359,0.40,0.24,-0.15,0.48
15.369,0.10,0.10,-0.17,0.22
15.379,-0.20,-0.07,-0.04,0.22
15.389,-0.48,-0.12,0.37,0.61
15.399,-0.36,0.15,-0.03,0.39
15.409,-0.22,0.33,0.04,0.40
15.419,0.10,0.11,-0.13,0.20
15.429,0.09,-0.35,-0.19,0.41
15.439,0.10,-0.43,-0.15,0.47
15.449,0.10,-0.21,-0.08,0.25
15.460,0.05,0.08,-0.18,0.21
15.470,0.20,0.21,0.03,0.29
15.480,0.46,0.06,0.16,0.49
15.490,0.39,0.23,-0.35,0.57
15.500,0.15,0.02,0.01,0.15
15.510,-0.15,-0.14,-0.14,0.25
15.520,-0.45,-0.13,0.38,0.60
15.530,-0.50,0.28,0.11,0.58
15.540,-0.33,0.28,-0.18,0.47
15.550,0.09,0.04,-0.19,0.21
15.560,0.21,-0.15,-0.05,0.26
15.570,0.22,-0.43,-0.07,0.49
15.581,0.04,-0.32,-0.28,0.43
15.590,0.11,-0.08,-0.01,0.14
15.601,0.32,0.32,0.03,0.45
15.611,0.43,0.14,0.13,0.47
15.621,0.32,0.13,-0.41,0.53
15.631,-0.06,0.03,0.01,0.07
15.641,-0.30,-0.01,0.02,0.30
15.651,-0.48,0.10,0.31,0.58
15.661,-0.27,0.11,0.09,0.31
15.671,-0.20,0.23,-0.32,0.44
15.681,0.17,-0.07,-0.00,0.19
15.692,0.19,-0.26,-0.06,0.33
15.702,0.07,-0.39,-0.26,0.47
15.712,-0.02,-0.23,-0.12,0.26
15.722,0.24,-0.00,0.04,0.24
15.732,0.34,0.40,-0.02,0.52
15.742,0.49,0.29,0.07,0.58
15.752,0.23,0.02,-0.22,0.32
15.762,-0.10,-0.10,-0.12,0.19
15.772,-0.39,-0.00,0.07,0.39
15.782,-0.37,0.17,0.30,0.51
15.792,-0.33,0.18,0.03,0.37
15.802,-0.16,0.07,-0.28,0.33
15.812,0.14,-0.22,-0.09,0.27
15.822,0.17,-0.18,-0.14,0.28
15.833,0.15,-0.29,-0.05,0.33
15.843,0.13,-0.27,-0.23,0.38
15.853,0.12,-0.07,-0.05,0.15
15.863,0.39,0.27,0.14,0.50
15.873,0.48,0.33,-0.13,0.60
15.883,0.17,0.09,-0.06,0.21
15.893,-0.24,0.06,-0.14,0.29
15.903,-0.47,0.08,0.17,0.50
15.913,-0.37,0.23,0.28,0.52
15.923,-0.31,0.22,-0.12,0.40
15.933,0.09,-0.15,-0.22,0.28
15.944,0.26,-0.42,-0.03,0.50
15.954,0.10,-0.26,-0.09,0.29
15.964,0.00,-0.03,-0.37,0.37
15.974,0.06,-0.21,0.12,0.25
15.984,0.22,-0.07,-0.12,0.26
15.994,0.34,0.24,0.08,0.42
16.004,0.63,0.34,-0.08,0.72
16.014,0.14,0.10,-0.07,0.19
16.024,-0.31,-0.07,-0.18,0.36
16.034,-0.45,-0.13,0.39,0.61
16.045,-0.44,0.29,0.06,0.53
16.054,-0.25,0.36,-0.07,0.44
16.065,0.12,-0.09,-0.20,0.25
16.075,0.08,-0.33,-0.14,0.37
16.085,0.18,-0.27,-0.15,0.35
16.095,0.13,-0.11,-0.09,0.19
16.105,0.09,-0.22,-0.09,0.26
16.115,0.28,0.02,-0.13,0.31
16.125,0.39,0.23,0.32,0.55
16.135,0.42,0.35,-0.29,0.62
16.145,0.01,0.18,-0.09,0.20
16.156,-0.36,-0.09,0.07,0.38
16.165,-0.48,0.03,0.15,0.51
16.175,-0.29,0.24,0.22,0.44
16.186,-0.23,0.36,-0.32,0.53
16.196,0.26,-0.23,-0.07,0.36
16.206,0.17,-0.53,0.02,0.56
16.216,0.01,-0.31,-0.41,0.51
16.226,-0.01,-0.07,0.02,0.07
16.236,0.11,0.02,-0.04,0.12
16.246,0.23,0.09,0.00,0.25
16.256,0.50,0.21,0.02,0.54
16.266,0.45,0.32,-0.19,0.58
16.276,0.01,0.11,-0.10,0.15
16.286,-0.40,-0.11,0.16,0.45
16.297,-0.60,0.07,0.20,0.64
16.307,-0.30,0.29,-0.11,0.43
16.317,-0.16,0.35,-0.10,0.40
16.327,0.16,-0.18,-0.06,0.25
16.337,0.20,-0.42,-0.30,0.55
16.347,0.21,-0.42,0.04,0.47
16.357,0.04,-0.13,-0.11,0.18
16.367,0.10,0.07,-0.23,0.26
16.377,0.25,0.06,0.24,0.35
16.387,0.46,0.23,-0.11,0.53
16.397,0.29,0.18,-0.13,0.37
16.408,-0.10,0.17,-0.07,0.21
16.418,-0.31,-0.14,-0.02,0.34
16.428,-0.29,-0.07,0.42,0.52
16.438,-0.38,0.32,-0.09,0.50
16.448,-0.09,0.34,-0.14,0.38
16.458,0.08,-0.02,-0.06,0.10
16.468,0.11,-0.43,-0.13,0.46
16.478,0.06,-0.43,-0.20,0.48
16.488,0.11,-0.22,-0.03,0.25
16.498,0.17,0.16,-0.12,0.26
16.508,0.31,0.27,0.10,0.42
16.518,0.53,0.17,0.03,0.56
16.529,0.29,0.11,-0.33,0.45
16.539,-0.09,-0.08,0.01,0.12
16.548,-0.31,-0.11,0.07,0.34
16.559,-0.40,-0.07,0.30,0.51
16.569,-0.47,0.38,-0.13,0.62
16.579,-0.05,0.28,-0.00,0.28
16.589,0.16,-0.03,-0.21,0.27
16.599,0.15,-0.43,-0.06,0.46
16.609,0.11,-0.42,-0.32,0.54
16.619,0.12,-0.25,-0.01,0.27
16.629,0.21,0.11,-0.09,0.25
16.639,0.46,0.40,-0.14,0.62
16.650,0.15,0.15,0.41,0.46
16.660,0.40,-0.08,-0.45,0.60
16.670,-0.40,-0.18,-0.02,0.43
16.680,-0.23,0.09,0.08,0.26
