time,ax,ay,az,atotal
0.000,0.24,0.15,0.06,0.29
0.010,0.49,0.15,0.00,0.51
0.020,0.39,0.35,-0.24,0.58
0.030,0.05,0.13,0.03,0.14
0.041,-0.10,-0.03,-0.13,0.17
0.050,-0.42,-0.18,0.24,0.52
0.061,-0.42,-0.00,0.19,0.46
0.071,-0.45,0.40,-0.06,0.60
0.081,-0.01,0.26,-0.03,0.26
0.091,0.08,-0.13,-0.10,0.18
0.101,0.28,-0.55,-0.16,0.64
0.111,0.10,-0.38,-0.14,0.42
0.121,0.29,-0.02,-0.04,0.30
0.131,0.27,0.31,0.04,0.41
0.141,0.40,0.25,0.00,0.47
0.151,0.27,0.11,-0.18,0.34
0.162,-0.05,0.02,-0.10,0.11
0.172,-0.27,-0.06,-0.08,0.29
0.182,-0.27,-0.10,0.25,0.38
0.192,-0.19,0.05,0.21,0.29
0.202,-0.33,0.38,-0.20,0.54
0.212,0.03,0.21,-0.04,0.21
0.222,-0.00,-0.13,-0.07,0.15
0.232,0.17,-0.44,-0.30,0.56
0.242,0.21,-0.41,0.02,0.46
0.252,0.20,0.00,-0.17,0.26
0.262,0.26,0.32,0.15,0.44
0.272,0.45,0.32,0.01,0.55
0.283,0.34,-0.02,-0.22,0.40
0.293,-0.05,-0.06,-0.12,0.14
0.303,-0.20,-0.13,-0.01,0.24
0.313,-0.35,0.11,0.21,0.42
0.323,-0.36,0.24,0.23,0.49
0.333,-0.32,0.38,-0.22,0.54
0.343,0.02,0.03,0.07,0.08
0.353,0.08,-0.18,-0.22,0.30
0.363,0.17,-0.39,-0.08,0.43
0.373,0.30,-0.45,-0.10,0.55
0.383,0.14,-0.15,-0.14,0.25
0.393,0.34,0.27,0.07,0.44
0.404,0.38,0.46,0.14,0.62
0.414,0.17,0.22,-0.27,0.39
0.424,-0.03,-0.13,-0.04,0.13
0.434,-0.27,-0.12,-0.01,0.29
0.444,-0.31,0.04,0.12,0.33
0.454,-0.19,0.27,0.21,0.39
0.464,-0.18,0.20,0.05,0.27
0.474,-0.04,-0.09,-0.34,0.35
0.484,-0.02,-0.24,0.02,0.24
0.494,0.19,-0.21,-0.15,0.32
0.504,0.03,-0.20,-0.05,0.21
0.515,0.25,-0.17,-0.20,0.36
0.525,0.36,0.11,0.17,0.41
0.535,0.52,0.39,-0.03,0.65
0.545,0.33,0.27,-0.17,0.46
0.555,-0.08,-0.19,-0.04,0.21
0.565,-0.29,-0.19,-0.16,0.38
0.575,-0.39,-0.05,0.40,0.56
0.585,-0.33,0.46,0.16,0.59
0.595,-0.27,0.42,-0.16,0.52
0.605,0.06,-0.19,-0.02,0.20
0.615,0.00,-0.41,-0.18,0.45
0.625,0.20,-0.26,-0.15,0.36
0.636,0.19,-0.05,-0.06,0.21
0.646,0.21,-0.17,-0.11,0.29
0.656,0.22,0.00,-0.02,0.22
0.666,0.45,0.25,0.02,0.51
0.676,0.40,0.33,-0.13,0.53
0.686,-0.06,0.11,-0.07,0.14
0.696,-0.30,-0.25,-0.12,0.41
0.706,-0.42,-0.11,0.22,0.49
0.716,-0.26,0.27,0.30,0.48
0.726,-0.29,0.57,-0.19,0.66
0.736,0.05,-0.06,0.00,0.07
0.747,0.10,-0.42,-0.25,0.50
0.756,0.12,-0.42,-0.07,0.45
0.767,0.14,-0.07,-0.13,0.21
0.777,0.19,-0.00,-0.04,0.19
0.787,0.34,-0.01,-0.00,0.34
0.797,0.38,0.14,0.10,0.42
0.807,0.33,0.18,-0.25,0.45
0.817,0.05,0.14,-0.04,0.16
0.827,-0.30,-0.07,0.06,0.32
0.837,-0.46,-0.05,0.05,0.46
0.847,-0.35,0.26,0.28,0.52
0.857,-0.17,0.46,-0.09,0.50
0.867,-0.09,0.11,-0.16,0.21
0.878,0.17,-0.47,-0.10,0.51
0.888,0.09,-0.54,-0.17,0.57
0.898,0.23,-0.14,-0.28,0.39
0.908,0.11,0.09,0.25,0.28
0.918,0.33,0.07,-0.18,0.38
0.928,0.23,0.05,0.34,0.41
0.938,0.54,0.20,-0.36,0.67
0.948,0.07,0.15,-0.04,0.17
0.958,-0.16,0.05,0.04,0.17
0.968,-0.49,-0.10,0.24,0.56
0.978,-0.43,0.12,0.09,0.46
0.988,-0.26,0.41,-0.07,0.49
0.999,0.13,0.11,-0.03,0.18
1.009,0.12,-0.39,-0.17,0.44
1.019,0.07,-0.43,-0.22,0.49
1.029,0.15,-0.19,-0.06,0.25
1.039,0.08,0.04,-0.06,0.11
1.049,0.35,0.19,-0.14,0.42
1.059,0.54,0.03,0.21,0.58
1.069,0.32,0.13,-0.31,0.46
1.079,0.02,0.04,-0.09,0.10
1.089,-0.20,-0.08,0.15,0.27
1.099,-0.47,-0.10,0.14,0.50
1.110,-0.57,0.30,0.20,0.68
1.120,-0.30,0.37,-0.03,0.48
1.130,0.04,0.08,-0.28,0.29
1.140,0.42,-0.24,-0.03,0.49
1.150,0.10,-0.48,-0.08,0.50
1.160,0.15,-0.16,-0.40,0.45
1.170,0.09,-0.16,0.65,0.68
1.180,0.21,0.29,-0.63,0.72
1.190,0.55,0.12,0.39,0.68
1.200,0.26,0.07,-0.15,0.30
1.210,-0.01,0.05,-0.40,0.40
1.221,-0.25,-0.10,0.56,0.62
1.231,-0.50,0.12,-0.11,0.53
1.241,-0.32,0.24,0.25,0.47
1.251,-0.20,0.32,-0.06,0.38
1.261,-0.01,-0.00,-0.16,0.16
1.271,0.22,-0.30,-0.01,0.38
1.281,0.16,-0.46,-0.04,0.49
1.291,0.08,-0.23,-0.25,0.35
1.301,0.27,0.06,0.13,0.30
1.311,0.37,0.39,0.13,0.55
1.321,0.37,0.19,-0.04,0.41
1.331,0.26,-0.03,-0.28,0.39
1.341,-0.07,-0.12,-0.03,0.14
1.352,-0.26,-0.11,0.01,0.28
1.362,-0.61,0.21,0.61,0.89
1.372,-0.41,0.36,-0.24,0.60
1.382,-0.06,0.15,-0.18,0.25
1.392,0.14,-0.16,0.07,0.22
1.402,0.19,-0.16,-0.26,0.36
1.412,0.15,-0.39,-0.03,0.42
1.422,0.09,-0.22,-0.21,0.32
1.432,0.25,-0.02,0.09,0.27
1.442,0.39,0.28,0.09,0.49
1.452,0.40,0.29,-0.16,0.52
1.462,0.17,-0.02,0.02,0.17
1.473,-0.18,-0.02,-0.28,0.33
1.483,-0.23,-0.12,0.27,0.38
1.493,-0.50,0.33,0.25,0.65
1.503,-0.38,0.40,-0.03,0.56
1.513,-0.07,-0.02,-0.33,0.34
1.523,0.22,-0.32,-0.00,0.38
1.533,0.20,-0.36,-0.12,0.42
1.543,0.11,-0.20,-0.23,0.33
1.553,0.15,-0.19,0.00,0.24
1.563,0.25,0.05,-0.11,0.27
1.573,0.35,0.28,0.18,0.48
1.583,0.58,0.36,-0.36,0.77
1.593,0.12,-0.02,0.17,0.21
1.604,-0.38,-0.15,-0.22,0.46
1.614,-0.41,-0.20,0.25,0.52
1.624,-0.43,0.38,0.24,0.62
1.634,-0.29,0.46,-0.09,0.55
1.644,-0.01,-0.02,-0.31,0.31
1.654,0.14,-0.37,-0.02,0.39
1.664,0.21,-0.38,-0.15,0.46
1.674,0.16,-0.17,-0.21,0.31
1.684,0.25,-0.21,-0.02,0.33
1.695,0.18,0.14,-0.11,0.26
1.704,0.38,0.24,0.26,0.52
1.715,0.33,0.35,-0.23,0.53
1.725,-0.04,0.11,-0.11,0.16
1.735,-0.18,-0.18,0.10,0.28
1.745,-0.29,-0.14,0.30,0.44
1.755,-0.61,0.41,-0.02,0.74
1.765,-0.09,0.47,-0.10,0.49
1.775,0.16,-0.21,0.00,0.27
1.785,-0.12,-0.37,-0.45,0.60
1.795,0.42,-0.54,0.18,0.71
1.805,-0.15,-0.05,-0.19,0.25
1.815,0.19,0.02,-0.28,0.34
1.826,0.40,0.03,0.49,0.63
1.836,0.42,0.27,-0.30,0.59
1.846,0.36,0.34,-0.17,0.52
1.856,0.09,0.11,0.22,0.26
1.866,-0.45,-0.23,-0.09,0.51
1.876,-0.47,-0.04,0.25,0.53
1.886,-0.48,0.51,0.02,0.71
1.896,-0.11,0.48,-0.23,0.54
1.906,0.16,-0.31,0.12,0.36
1.916,0.25,-0.64,-0.42,0.80
1.926,0.16,-0.38,-0.25,0.48
1.936,0.20,0.04,0.20,0.29
1.947,-0.07,0.05,0.46,0.46
1.957,0.37,0.04,-0.60,0.71
1.967,0.30,0.13,0.26,0.42
1.977,0.46,0.28,-0.23,0.58
1.987,-0.19,0.27,-0.00,0.33
1.997,-0.08,-0.25,0.14,0.30
2.007,-0.35,-0.14,0.14,0.40
2.017,-0.58,0.44,0.05,0.73
2.027,-0.12,0.41,-0.12,0.44
2.037,0.07,-0.13,-0.13,0.20
2.047,0.32,-0.67,0.00,0.74
2.057,0.12,-0.47,-0.26,0.55
2.067,-0.01,-0.09,-0.05,0.11
2.078,0.22,0.21,-0.07,0.31
2.088,0.36,0.23,0.18,0.47
2.098,0.52,0.26,-0.20,0.61
2.108,0.20,0.25,-0.13,0.34
2.118,-0.16,0.00,0.04,0.17
2.128,-0.22,-0.30,0.05,0.38
2.138,-0.42,-0.23,0.17,0.50
2.148,-0.58,0.49,0.03,0.76
2.158,-0.10,0.49,-0.01,0.50
2.168,0.20,-0.02,-0.18,0.26
2.179,0.20,-0.66,0.13,0.70
2.189,0.11,-0.51,-0.48,0.71
2.199,0.22,-0.13,0.04,0.25
2.209,0.30,0.25,0.10,0.41
2.219,0.20,0.39,-0.06,0.44
2.229,0.38,0.12,-0.08,0.41
2.239,0.11,0.05,-0.13,0.18
2.249,-0.22,0.04,-0.20,0.30
2.259,-0.06,-0.15,0.21,0.26
2.269,-0.32,-0.06,0.24,0.40
2.279,-0.47,0.51,-0.12,0.70
2.289,-0.10,0.29,0.02,0.30
2.299,0.12,-0.17,-0.15,0.26
2.310,0.07,-0.53,-0.22,0.58
2.320,0.19,-0.47,-0.05,0.51
2.330,0.19,-0.16,-0.05,0.25
2.340,0.24,0.26,0.04,0.36
2.350,0.39,0.45,0.09,0.60
2.360,0.38,0.13,-0.03,0.40
2.370,0.00,0.04,-0.37,0.37
2.380,-0.18,-0.15,0.13,0.26
2.390,-0.27,-0.04,0.05,0.28
2.400,-0.26,0.15,0.29,0.42
2.410,-0.26,0.29,-0.00,0.39
2.420,-0.23,0.28,-0.35,0.50
2.431,0.18,-0.11,0.07,0.22
2.441,0.08,-0.35,-0.20,0.41
2.451,0.23,-0.55,-0.16,0.62
2.461,0.12,-0.26,-0.10,0.30
2.471,0.18,0.18,0.01,0.25
2.481,0.39,0.45,0.13,0.61
2.491,0.42,0.42,-0.20,0.63
2.501,0.02,-0.05,0.07,0.09
2.511,-0.10,-0.16,-0.25,0.31
2.521,-0.40,-0.13,0.17,0.46
2.531,-0.29,0.29,0.31,0.51
2.542,-0.27,0.27,0.11,0.40
2.552,-0.03,0.05,-0.29,0.29
2.562,0.05,-0.18,-0.01,0.19
2.572,0.17,-0.25,-0.10,0.32
2.582,0.11,-0.28,-0.14,0.33
2.592,0.15,-0.27,-0.10,0.32
2.602,0.14,0.01,-0.11,0.18
2.612,0.41,0.34,0.21,0.57
2.622,0.44,0.41,-0.20,0.63
2.632,0.21,-0.03,-0.06,0.22
2.642,-0.22,-0.21,-0.18,0.36
2.652,-0.39,-0.12,0.14,0.43
2.663,-0.35,0.26,0.50,0.66
2.672,-0.33,0.63,-0.26,0.75
2.683,-0.01,-0.02,0.11,0.11
2.693,0.03,-0.37,-0.27,0.46
2.703,0.07,-0.40,-0.12,0.42
2.713,0.22,-0.18,-0.10,0.30
2.723,0.22,-0.18,-0.01,0.29
2.733,0.26,-0.00,-0.16,0.31
2.743,0.28,0.23,0.18,0.41
2.753,0.52,0.33,-0.16,0.64
2.763,0.00,0.18,-0.07,0.19
2.773,-0.18,-0.14,-0.16,0.28
2.784,-0.41,-0.22,0.19,0.50
2.794,-0.33,0.10,0.27,0.44
2.804,-0.27,0.57,-0.10,0.64
2.814,-0.02,0.21,0.02,0.21
2.824,0.08,-0.30,-0.21,0.37
2.834,0.14,-0.47,-0.15,0.51
2.844,0.14,-0.25,-0.02,0.29
2.854,0.08,-0.00,-0.15,0.17
2.864,0.24,-0.08,0.06,0.26
2.874,0.32,0.14,0.07,0.36
2.884,0.45,0.25,-0.17,0.54
2.894,0.20,0.16,-0.11,0.28
2.905,-0.20,-0.02,-0.04,0.20
2.915,-0.38,-0.20,0.15,0.46
2.925,-0.43,0.12,0.22,0.50
2.935,-0.32,0.57,-0.11,0.66
2.945,-0.03,0.32,-0.07,0.33
2.955,0.11,-0.38,-0.08,0.40
2.965,0.08,-0.49,-0.33,0.60
2.975,0.22,-0.29,-0.00,0.37
2.985,0.19,0.04,-0.12,0.23
2.995,0.18,0.00,-0.15,0.23
3.005,0.38,0.05,0.20,0.43
3.015,0.32,0.20,-0.04,0.38
3.026,0.18,0.13,-0.29,0.36
3.036,-0.23,0.01,0.19,0.30
3.046,-0.38,-0.20,0.14,0.45
3.056,-0.16,0.10,-0.34,0.39
3.066,-0.70,0.40,1.15,1.41
3.076,0.29,0.35,-0.94,1.04
3.086,-0.25,-0.28,0.04,0.38
3.096,0.45,-0.57,0.02,0.72
3.106,0.03,-0.23,-0.25,0.35
3.116,0.13,-0.05,-0.06,0.15
3.127,0.24,0.12,-0.15,0.31
3.136,0.37,0.00,0.39,0.54
3.147,0.40,0.14,-0.35,0.55
3.157,0.02,0.08,-0.02,0.09
3.167,-0.09,0.04,-0.16,0.19
3.177,-0.36,-0.07,0.28,0.46
3.187,-0.39,0.10,0.33,0.51
3.197,-0.39,0.41,-0.19,0.60
3.207,-0.14,0.14,-0.13,0.23
3.217,0.17,-0.11,-0.11,0.23
3.227,0.21,-0.46,-0.05,0.51
3.237,0.20,-0.37,-0.27,0.50
3.247,0.16,-0.09,0.05,0.19
3.257,0.30,0.21,-0.08,0.38
3.268,0.39,0.21,0.13,0.46
3.278,0.31,0.14,-0.14,0.36
3.288,0.07,0.02,-0.17,0.18
3.298,-0.30,-0.03,-0.01,0.30
3.308,-0.38,0.06,0.31,0.49
3.318,-0.44,0.05,0.30,0.53
3.328,-0.11,0.35,-0.43,0.57
3.338,-0.06,0.12,0.18,0.23
3.348,0.20,-0.16,-0.14,0.30
3.358,0.07,-0.44,-0.24,0.50
3.368,0.07,-0.29,-0.08,0.31
3.379,0.18,-0.02,-0.04,0.18
3.389,0.41,0.20,0.04,0.46
3.399,0.47,0.28,0.01,0.55
3.409,0.36,-0.03,-0.22,0.42
3.419,-0.11,-0.07,-0.04,0.14
3.429,-0.28,-0.15,0.25,0.40
3.439,-0.36,0.17,-0.07,0.40
3.449,-0.43,0.28,0.34,0.61
3.459,-0.30,0.34,-0.28,0.53
3.469,0.03,-0.01,-0.09,0.10
3.479,0.37,-0.31,0.06,0.49
3.489,-0.15,-0.25,-0.52,0.60
3.500,0.35,-0.45,0.09,0.58
3.510,0.15,-0.09,-0.03,0.18
3.520,0.28,0.35,-0.10,0.46
3.530,0.46,0.27,0.26,0.59
3.540,0.30,0.03,-0.33,0.45
3.550,-0.19,-0.03,-0.11,0.22
3.560,-0.31,-0.13,0.26,0.43
3.570,-0.40,0.24,0.18,0.50
3.580,-0.32,0.42,0.15,0.54
3.590,-0.08,0.05,-0.30,0.31
3.600,0.06,-0.33,-0.09,0.35
3.610,0.17,-0.29,-0.04,0.34
3.621,0.06,-0.10,-0.22,0.25
3.631,0.13,-0.26,-0.07,0.30
3.641,0.23,-0.05,-0.16,0.29
3.651,0.38,0.25,0.24,0.51
3.661,0.49,0.36,-0.08,0.61
3.671,0.22,0.05,-0.23,0.32
3.681,-0.20,-0.13,-0.02,0.24
3.691,-0.41,-0.11,0.23,0.48
3.701,-0.42,0.16,0.28,0.52
3.711,-0.45,0.57,-0.15,0.74
3.721,0.08,0.04,0.02,0.10
3.732,0.05,-0.32,-0.24,0.40
3.742,0.21,-0.40,-0.11,0.47
3.752,0.09,-0.08,-0.11,0.16
3.762,0.25,-0.13,0.00,0.29
3.772,0.16,-0.09,-0.15,0.23
3.782,0.43,0.11,0.09,0.45
3.792,0.39,0.38,-0.16,0.56
3.802,0.09,0.10,0.04,0.14
3.812,-0.26,-0.13,-0.21,0.36
3.822,-0.44,-0.05,0.22,0.50
3.832,-0.31,0.25,0.25,0.46
3.843,-0.31,0.51,-0.17,0.62
3.853,0.03,-0.09,-0.10,0.14
3.863,0.18,-0.45,-0.20,0.52
3.873,0.15,-0.44,-0.09,0.48
3.883,0.08,-0.11,-0.15,0.20
3.893,0.05,0.03,-0.06,0.08
3.903,0.33,0.06,-0.04,0.34
3.913,0.40,0.18,0.21,0.49
3.923,0.48,0.26,-0.36,0.65
3.933,-0.02,0.21,0.09,0.23
3.943,-0.21,-0.15,-0.10,0.28
3.953,-0.40,-0.15,0.32,0.54
3.963,-0.54,0.30,0.12,0.63
3.974,-0.19,0.43,-0.22,0.52
3.984,0.00,-0.02,0.01,0.02
3.994,0.21,-0.46,-0.16,0.53
4.004,0.13,-0.53,-0.16,0.57
4.014,0.12,-0.12,-0.10,0.20
4.024,0.13,0.13,-0.06,0.19
4.034,0.33,0.03,0.08,0.34
4.044,0.33,0.21,0.05,0.39
4.054,0.38,0.28,-0.22,0.52
4.064,0.04,0.21,-0.03,0.21
4.074,-0.33,-0.17,0.03,0.38
4.085,-0.32,-0.27,0.14,0.44
4.095,-0.39,0.21,0.15,0.46
4.105,-0.27,0.47,-0.16,0.57
4.115,0.10,0.13,-0.09,0.19
4.125,0.20,-0.49,-0.01,0.53
4.135,0.03,-0.53,-0.41,0.67
4.145,0.13,-0.27,-0.02,0.30
4.155,0.15,0.14,-0.01,0.21
4.165,0.30,0.24,-0.01,0.38
4.175,0.49,0.13,0.05,0.51
4.185,0.39,0.22,-0.16,0.48
4.195,-0.00,0.10,-0.09,0.14
4.205,-0.38,-0.08,0.07,0.39
4.216,-0.37,-0.22,0.25,0.50
4.226,-0.46,0.18,0.02,0.50
4.236,-0.22,0.44,-0.11,0.51
4.246,0.07,0.03,0.11,0.14
4.256,0.10,-0.37,-0.32,0.50
4.266,0.18,-0.53,-0.18,0.58
4.276,0.16,-0.25,-0.00,0.30
4.286,0.26,0.10,-0.14,0.31
4.296,0.24,0.35,0.18,0.46
4.306,0.55,0.19,-0.06,0.59
4.316,0.09,0.12,-0.22,0.27
4.327,-0.07,-0.02,-0.08,0.11
4.337,-0.23,-0.08,0.01,0.24
4.347,-0.31,-0.11,0.46,0.56
4.357,-0.37,0.25,-0.05,0.45
4.367,-0.30,0.41,-0.21,0.55
4.377,0.16,0.02,0.05,0.17
4.387,0.14,-0.31,-0.17,0.38
4.397,0.12,-0.53,-0.20,0.58
4.407,0.11,-0.29,-0.02,0.31
4.417,0.25,0.12,-0.03,0.28
4.427,0.28,0.44,0.09,0.53
4.437,0.50,0.22,-0.02,0.54
4.448,0.23,-0.04,-0.23,0.33
4.458,-0.24,-0.06,-0.10,0.26
4.468,-0.12,-0.17,-0.05,0.21
4.478,-0.39,0.14,0.36,0.55
4.488,-0.34,0.29,0.12,0.46
4.498,-0.15,0.22,-0.25,0.37
4.508,-0.02,-0.02,-0.08,0.08
4.518,0.12,-0.20,-0.12,0.26
4.528,0.22,-0.45,-0.07,0.50
4.538,0.25,-0.38,-0.18,0.49
4.548,0.21,-0.05,0.03,0.22
4.559,0.26,0.33,0.04,0.43
4.568,0.45,0.50,-0.16,0.69
4.579,0.22,0.04,0.04,0.23
4.589,-0.20,-0.09,-0.24,0.33
4.599,-0.30,-0.11,0.08,0.33
4.609,-0.28,0.07,0.30,0.41
4.619,-0.30,0.29,-0.01,0.42
4.629,-0.10,0.12,-0.04,0.16
4.639,0.01,-0.14,-0.14,0.19
4.649,0.08,-0.22,-0.16,0.28
4.659,0.19,-0.20,-0.11,0.30
4.669,0.05,-0.25,-0.20,0.32
4.679,0.13,-0.15,-0.05,0.21
4.690,0.39,0.18,0.16,0.45
4.700,0.51,0.48,-0.14,0.72
4.710,0.19,0.20,-0.07,0.29
4.720,-0.02,-0.24,-0.17,0.30
4.730,-0.37,-0.21,0.10,0.44
4.740,-0.32,0.08,0.33,0.46
4.750,-0.36,0.51,0.07,0.62
4.760,-0.16,0.26,-0.13,0.34
4.770,-0.06,-0.21,-0.20,0.30
4.780,0.16,-0.39,-0.03,0.43
4.790,0.14,-0.21,-0.16,0.30
4.800,0.17,-0.11,-0.14,0.24
4.810,0.26,-0.18,0.01,0.32
4.821,0.28,0.08,0.06,0.30
4.831,0.36,0.27,-0.05,0.46
4.841,0.30,0.29,-0.17,0.45
4.851,-0.09,-0.05,-0.02,0.10
4.861,-0.29,-0.27,0.00,0.39
4.871,-0.36,-0.05,0.27,0.45
4.881,-0.32,0.55,0.03,0.63
4.891,-0.18,0.43,0.02,0.46
4.901,0.05,-0.23,-0.25,0.34
4.911,0.05,-0.43,-0.22,0.49
4.921,0.20,-0.37,0.02,0.42
4.932,0.09,-0.07,-0.21,0.24
4.942,0.17,-0.09,-0.04,0.19
4.952,0.38,0.08,0.10,0.40
4.962,0.46,0.19,-0.02,0.50
4.972,0.27,0.24,-0.31,0.48
4.982,-0.02,0.04,0.05,0.07
4.992,-0.31,-0.19,-0.05,0.37
5.002,-0.43,-0.02,0.30,0.52
5.012,-0.42,0.37,0.09,0.56
5.022,-0.19,0.47,-0.27,0.58
5.032,0.07,-0.15,0.04,0.17
5.043,0.04,-0.48,-0.30,0.57
5.053,0.16,-0.41,-0.10,0.45
5.063,0.24,-0.06,-0.09,0.26
5.073,0.19,0.10,-0.06,0.22
5.083,0.37,-0.03,0.09,0.38
5.093,0.41,0.14,-0.08,0.44
5.103,0.24,0.18,-0.18,0.35
5.113,-0.12,0.11,0.00,0.16
5.123,-0.27,-0.18,0.03,0.33
5.133,-0.33,-0.03,0.23,0.41
5.143,-0.47,0.36,0.25,0.64
5.154,-0.02,0.44,-0.39,0.59
5.164,0.11,-0.11,-0.09,0.18
5.174,0.16,-0.61,0.19,0.66
5.184,-0.05,-0.32,-0.59,0.67
5.194,0.18,-0.24,0.24,0.39
5.204,0.21,0.13,-0.36,0.43
5.214,0.24,0.16,0.26,0.38
5.224,0.54,0.03,-0.06,0.54
5.234,0.22,0.14,-0.26,0.37
5.244,-0.12,0.09,0.02,0.15
5.254,-0.28,-0.10,0.08,0.31
5.264,-0.41,-0.09,0.25,0.49
5.274,-0.47,0.44,-0.03,0.65
5.285,-0.13,0.29,-0.04,0.32
5.295,0.10,-0.08,-0.19,0.23
5.305,0.13,-0.44,-0.12,0.47
5.315,0.18,-0.43,-0.16,0.49
5.325,0.14,-0.13,-0.07,0.21
5.335,0.32,0.10,-0.08,0.35
5.345,0.44,0.24,0.16,0.53
5.355,0.45,0.08,-0.03,0.46
5.365,0.07,0.03,-0.33,0.34
5.375,-0.19,-0.07,0.06,0.21
5.385,-0.30,0.09,0.12,0.34
5.395,-0.41,0.09,0.28,0.50
5.406,-0.30,0.31,-0.05,0.43
5.416,-0.13,0.14,-0.25,0.32
5.426,0.20,-0.17,-0.07,0.27
5.436,0.09,-0.35,-0.08,0.37
5.446,0.14,-0.39,-0.22,0.47
5.456,0.00,-0.09,-0.13,0.16
5.466,0.38,0.18,0.06,0.42
5.476,0.39,0.34,0.12,0.53
5.486,0.39,0.04,-0.19,0.44
5.496,0.12,-0.03,-0.22,0.25
5.506,-0.24,-0.09,0.13,0.29
5.516,-0.32,-0.01,0.11,0.33
5.527,-0.44,0.29,0.27,0.59
5.537,-0.34,0.36,-0.15,0.52
5.547,-0.13,0.03,-0.20,0.24
5.557,0.28,-0.24,-0.07,0.37
5.567,0.08,-0.25,-0.27,0.37
5.577,0.24,-0.35,0.11,0.44
5.587,0.07,-0.26,-0.14,0.30
5.597,0.37,0.09,-0.15,0.41
5.607,0.46,0.36,0.30,0.66
5.617,0.38,0.23,-0.27,0.52
5.627,-0.04,-0.08,-0.03,0.10
5.637,-0.27,-0.20,0.03,0.34
5.648,-0.46,0.20,0.24,0.55
5.658,-0.63,0.91,0.34,1.16
5.668,-0.20,0.54,-0.13,0.59
5.678,-0.21,0.58,0.01,0.61
5.688,-0.01,1.52,0.60,1.64
5.698,0.81,1.22,0.47,1.54
5.708,0.24,0.16,-0.30,0.41
5.718,0.22,-0.72,-0.30,0.82
5.728,0.40,-0.93,-0.27,1.05
5.738,0.12,-0.76,0.15,0.79
5.748,0.15,-0.55,-0.00,0.58
5.759,-0.04,-0.50,-0.07,0.50
5.769,-0.16,-0.39,-0.27,0.50
5.779,-0.06,-0.40,0.00,0.41
5.789,-0.06,-0.15,-0.38,0.42
5.799,0.08,-0.16,-0.02,0.18
5.809,0.11,-0.12,-0.15,0.22
5.819,0.13,0.01,-0.35,0.38
5.829,0.27,0.00,-0.04,0.27
5.839,-0.08,0.05,-0.03,0.10
5.849,-0.25,-0.12,-0.13,0.31
5.859,-0.13,-0.22,-0.20,0.32
5.869,-0.01,-0.18,-0.17,0.25
5.879,0.07,-0.08,-0.12,0.16
5.890,0.07,-0.13,-0.09,0.18
5.900,0.18,-0.35,-0.25,0.47
5.910,-0.00,-0.28,-0.12,0.31
5.920,0.10,-0.24,-0.25,0.35
5.930,-0.14,-0.01,-0.09,0.17
5.940,-0.35,0.03,-0.16,0.39
5.950,-0.36,-0.23,-0.20,0.47
5.960,-0.17,-0.45,-0.18,0.51
5.970,0.30,-0.22,-0.35,0.52
5.980,0.61,-0.01,-0.18,0.64
5.990,0.35,0.26,0.01,0.44
6.001,-0.40,0.86,0.68,1.16
6.011,0.21,1.77,1.23,2.17
6.021,-0.54,0.95,-0.21,1.12
6.031,0.50,0.40,-0.48,0.80
6.041,-0.09,0.84,0.72,1.11
6.051,0.17,-0.50,0.39,0.66
6.061,-0.61,-1.26,-0.83,1.63
6.071,-0.03,-1.29,-0.06,1.29
6.081,0.02,-0.50,0.25,0.56
6.091,0.18,0.35,-0.38,0.55
6.101,0.14,0.37,-0.06,0.40
6.111,0.40,0.10,0.00,0.41
6.122,0.27,-0.06,0.24,0.36
6.132,0.37,0.15,-0.36,0.54
6.141,0.25,0.37,-0.08,0.46
6.152,-0.21,0.25,0.15,0.36
6.162,-0.34,-0.18,0.08,0.39
6.172,-0.45,-0.03,0.07,0.46
6.182,-0.41,0.32,-0.04,0.52
6.192,0.01,0.18,-0.13,0.23
6.202,0.26,-0.41,-0.14,0.51
6.212,0.15,-0.50,-0.26,0.58
6.222,0.16,-0.24,-0.07,0.29
6.232,0.02,0.12,-0.04,0.13
6.243,0.25,0.22,-0.12,0.35
6.253,0.41,0.15,0.32,0.54
6.263,0.28,0.20,-0.34,0.48
6.273,0.19,0.01,-0.09,0.21
6.283,-0.17,0.01,0.09,0.19
6.293,-0.35,-0.25,0.25,0.49
6.303,-0.42,0.02,0.10,0.43
6.313,-0.40,0.43,-0.03,0.59
6.323,-0.06,0.35,-0.14,0.38
6.333,0.15,-0.14,-0.02,0.21
6.343,0.23,-0.53,-0.18,0.61
6.353,0.17,-0.40,-0.23,0.49
6.364,0.38,-0.10,0.02,0.39
6.374,0.26,0.18,0.04,0.32
6.384,0.40,0.16,0.02,0.43
6.394,0.32,0.19,-0.29,0.47
6.404,-0.15,0.13,0.05,0.21
6.414,-0.23,0.00,-0.03,0.23
6.424,-0.36,0.00,0.15,0.39
6.434,-0.33,0.15,0.18,0.40
6.444,-0.21,0.38,-0.08,0.45
6.454,0.04,0.05,-0.00,0.06
6.465,0.06,-0.25,-0.28,0.38
6.474,0.11,-0.52,-0.07,0.53
6.485,0.25,-0.37,-0.12,0.46
6.495,0.17,-0.00,-0.18,0.25
6.505,0.27,0.37,0.18,0.49
6.515,0.39,0.32,-0.02,0.50
6.525,0.28,0.02,-0.25,0.37
6.535,-0.00,0.01,-0.16,0.16
6.545,-0.12,-0.16,0.04,0.21
6.555,-0.34,0.03,0.19,0.39
6.565,-0.39,0.20,0.17,0.46
6.575,-0.30,0.34,-0.15,0.49
6.585,-0.07,0.09,0.00,0.11
6.595,0.12,-0.06,-0.28,0.31
6.606,0.13,-0.30,-0.04,0.33
6.616,0.34,-0.45,-0.13,0.58
6.626,0.17,-0.21,-0.05,0.28
6.636,0.32,0.15,-0.04,0.35
6.646,0.41,0.36,0.11,0.55
6.656,0.20,0.17,-0.12,0.29
6.666,-0.13,-0.11,-0.20,0.26
6.676,-0.28,-0.10,0.01,0.30
6.686,-0.27,0.14,0.29,0.42
6.696,-0.34,0.43,0.24,0.60
6.706,-0.11,0.26,-0.14,0.31
6.716,-0.06,-0.06,-0.19,0.21
6.727,0.18,-0.33,-0.07,0.39
6.737,0.09,-0.35,-0.10,0.38
6.747,0.07,-0.27,-0.18,0.33
6.757,0.11,-0.14,-0.08,0.19
6.767,0.37,0.12,0.11,0.40
6.777,0.42,0.47,-0.09,0.63
6.787,0.28,0.41,-0.14,0.52
6.797,0.10,-0.20,0.02,0.22
6.807,-0.24,-0.27,-0.14,0.39
6.818,-0.38,-0.13,0.32,0.51
6.827,-0.36,0.44,0.15,0.58
6.838,-0.24,0.38,-0.00,0.45
6.848,-0.06,-0.09,-0.21,0.24
6.858,0.08,-0.36,-0.17,0.40
6.868,0.15,-0.26,-0.02,0.30
6.878,0.16,-0.03,-0.17,0.24
6.888,0.23,-0.22,-0.00,0.32
6.898,0.27,-0.02,-0.11,0.29
6.908,0.52,0.21,-0.14,0.58
6.918,0.22,0.27,0.04,0.35
6.928,0.08,0.05,-0.09,0.13
6.938,-0.39,-0.15,-0.12,0.43
6.948,-0.41,-0.04,0.35,0.54
6.959,-0.25,0.36,0.11,0.45
6.969,-0.24,0.60,-0.09,0.65
6.979,0.09,-0.09,0.05,0.14
6.989,0.03,-0.45,-0.39,0.60
6.999,0.06,-0.46,-0.05,0.46
7.009,0.14,-0.21,0.01,0.25
7.019,0.05,-0.06,-0.07,0.10
7.029,0.43,0.00,-0.18,0.47
7.039,0.54,0.35,-0.19,0.67
7.049,0.37,0.23,0.19,0.48
7.059,0.13,0.07,-0.16,0.22
7.069,-0.54,0.00,-0.11,0.55
7.080,-0.51,0.02,0.27,0.58
7.090,-0.39,0.13,0.21,0.46
7.100,-0.14,0.33,-0.20,0.41
7.110,0.17,0.00,-0.07,0.18
7.120,0.18,-0.48,0.01,0.51
7.130,-0.00,-0.30,-0.44,0.53
7.140,0.08,-0.07,0.11,0.16
7.150,0.16,0.02,0.08,0.18
7.160,0.37,0.02,-0.41,0.55
7.170,0.51,0.18,-0.19,0.57
7.180,0.24,0.14,0.33,0.43
7.190,0.23,0.06,-0.44,0.50
7.201,-0.68,-0.13,0.86,1.10
7.211,-0.32,0.10,-0.67,0.75
7.221,-0.40,0.12,0.29,0.51
7.231,-0.07,0.41,0.16,0.44
7.241,0.09,0.22,-0.31,0.39
7.251,0.11,-0.57,0.09,0.59
7.261,0.20,-0.62,-0.51,0.83
7.271,0.03,-0.29,0.10,0.31
7.281,0.07,0.03,0.14,0.16
7.291,0.43,0.33,-0.69,0.88
7.301,0.42,0.03,0.92,1.01
7.312,0.43,0.31,-0.78,0.94
7.322,-0.22,0.19,-0.08,0.30
7.332,-0.06,-0.04,0.33,0.34
7.342,-0.45,-0.19,0.11,0.50
7.352,-0.50,0.26,-0.09,0.57
7.362,-0.08,0.16,0.16,0.24
7.372,-0.11,0.09,-0.41,0.43
7.382,0.15,-0.31,0.19,0.40
7.392,0.32,-0.50,-0.42,0.73
7.402,-0.09,-0.22,-0.04,0.24
7.412,0.40,0.04,-0.08,0.41
7.422,0.28,0.36,0.11,0.47
7.433,0.45,0.17,0.07,0.49
7.442,0.21,0.13,-0.37,0.44
7.453,-0.15,-0.06,0.21,0.27
7.463,-0.29,-0.06,-0.20,0.36
7.473,-0.47,-0.00,0.41,0.62
7.483,-0.20,0.27,0.12,0.36
7.493,-0.34,0.32,-0.23,0.52
7.503,0.21,-0.06,-0.37,0.43
7.513,0.09,-0.26,0.37,0.46
7.523,0.25,-0.35,-0.51,0.67
7.533,-0.07,-0.33,0.27,0.43
7.543,0.10,0.02,0.14,0.18
7.553,0.42,0.51,-0.08,0.66
7.564,-0.13,0.37,1.87,1.91
7.574,1.25,0.17,0.46,1.35
7.584,-0.62,-0.90,-0.47,1.19
7.594,-0.67,-0.44,-1.34,1.56
7.604,-0.89,0.68,2.47,2.71
7.614,-0.02,0.42,-0.19,0.46
7.624,-0.02,-0.60,-1.55,1.66
7.634,0.27,-1.08,-0.32,1.16
7.644,0.81,-1.21,-0.21,1.47
7.654,0.35,-0.76,-1.36,1.59
7.664,0.35,0.67,-1.04,1.29
7.675,0.20,0.83,1.69,1.89
7.685,0.55,1.57,-1.83,2.47
7.695,0.10,0.60,-0.70,0.93
7.705,-0.41,1.02,-1.23,1.65
7.715,-0.64,1.68,-1.28,2.20
7.725,-0.93,2.92,-3.24,4.46
7.735,0.31,-0.87,2.85,2.99
7.745,-0.25,-2.42,9.07,9.39
7.755,0.67,0.97,-7.64,7.73
7.765,0.10,-2.01,4.32,4.77
7.775,0.52,-1.90,-2.00,2.80
7.785,-0.50,-1.21,0.38,1.36
7.796,0.82,-0.62,0.15,1.04
7.806,-0.62,0.66,-0.69,1.14
7.816,0.67,0.65,0.73,1.18
7.826,0.45,0.65,-0.22,0.82
7.836,-0.16,0.45,-0.64,0.80
7.846,-0.08,-0.07,0.66,0.66
7.856,-0.39,-0.06,0.20,0.44
7.866,-0.39,0.20,-0.32,0.54
7.876,-0.27,0.25,0.37,0.52
7.886,0.15,-0.16,-0.65,0.69
7.896,0.27,-0.77,-0.42,0.92
7.907,-0.07,-0.34,0.44,0.56
7.916,0.35,-0.07,-0.17,0.40
7.927,-0.05,-0.13,-0.20,0.25
7.937,0.40,0.05,-0.08,0.41
7.947,0.44,0.37,0.22,0.61
7.957,0.42,0.23,-0.17,0.51
7.967,-0.18,0.17,-0.24,0.34
7.977,-0.59,0.17,0.31,0.69
7.987,-0.69,0.47,0.12,0.84
7.997,-0.16,-0.06,0.07,0.18
8.007,0.14,-0.05,-0.14,0.20
8.017,0.32,-0.43,-0.04,0.53
8.027,0.21,-0.27,-0.30,0.46
8.038,-0.03,-0.11,-0.06,0.13
8.048,-0.14,0.05,-0.02,0.15
8.058,0.04,-0.17,-0.21,0.28
8.068,0.27,-0.09,0.07,0.29
8.078,0.70,0.13,0.05,0.72
8.088,0.49,0.27,-0.13,0.58
8.098,-0.10,0.20,-0.13,0.26
8.108,-0.52,0.10,0.20,0.56
8.118,-0.57,0.18,0.14,0.61
8.128,-0.40,0.33,0.07,0.53
8.138,-0.16,0.23,-0.18,0.33
8.149,0.30,-0.33,-0.08,0.45
8.159,0.21,-0.56,-0.09,0.60
8.169,0.22,-0.50,-0.27,0.61
8.179,0.14,-0.10,-0.04,0.18
8.189,0.12,-0.02,0.13,0.18
8.199,0.45,0.21,-0.39,0.63
8.209,0.34,0.32,0.17,0.50
8.219,0.14,0.31,-0.20,0.40
8.229,-0.35,0.19,0.14,0.42
8.239,-0.44,0.05,-0.02,0.44
8.249,-0.29,-0.22,0.23,0.44
8.259,-0.11,0.18,-0.12,0.24
8.269,0.09,0.17,-0.06,0.20
8.280,0.20,-0.18,-0.07,0.28
8.290,0.06,-0.51,-0.19,0.54
8.300,-0.05,-0.39,-0.10,0.40
8.310,-0.02,-0.15,0.13,0.20
8.320,0.17,0.15,-0.32,0.39
8.330,0.55,0.27,-0.28,0.67
8.340,0.71,0.21,0.18,0.77
8.350,0.10,0.27,-0.00,0.29
8.360,-0.42,-0.05,0.02,0.42
8.370,-0.29,-0.17,-0.15,0.37
8.381,-0.30,-0.06,0.61,0.68
8.391,-0.48,0.40,-0.28,0.69
8.401,-0.03,0.28,-0.19,0.34
8.411,0.10,-0.04,0.05,0.11
8.421,0.16,-0.57,-0.26,0.65
8.431,0.25,-0.63,-0.20,0.71
8.441,0.16,-0.37,0.34,0.53
8.451,0.29,0.22,-0.53,0.64
8.461,0.50,0.56,-0.40,0.85
8.471,0.35,0.29,0.33,0.56
8.481,-0.17,0.18,-0.07,0.26
8.491,-0.26,0.05,-0.05,0.27
8.501,-0.48,-0.00,0.04,0.48
8.511,-0.24,-0.03,0.40,0.47
8.522,0.03,0.20,-0.32,0.38
8.532,0.02,0.05,0.15,0.16
8.542,0.13,-0.21,-0.24,0.34
8.552,-0.08,-0.39,-0.14,0.42
8.562,0.12,-0.50,0.02,0.52
8.572,-0.04,-0.20,0.21,0.29
8.582,0.40,0.37,-0.64,0.84
8.592,0.62,0.61,-0.05,0.87
8.602,0.36,0.24,0.19,0.47
8.612,-0.03,-0.08,-0.12,0.15
8.623,-0.29,-0.30,-0.04,0.42
8.633,-0.47,-0.11,0.04,0.48
8.643,-0.31,0.20,0.28,0.46
8.653,-0.11,0.34,-0.09,0.37
8.663,-0.05,0.17,-0.19,0.26
8.673,0.08,-0.22,0.00,0.23
8.683,0.04,-0.29,-0.28,0.40
8.693,0.28,-0.61,0.07,0.68
8.703,-0.01,-0.28,0.17,0.33
8.713,0.37,0.19,-0.51,0.66
8.723,0.48,0.61,-0.23,0.81
8.733,0.41,0.35,0.14,0.56
8.743,-0.06,0.02,0.10,0.12
8.754,-0.33,-0.24,-0.13,0.43
8.764,-0.42,-0.03,0.04,0.42
8.774,-0.21,0.19,0.32,0.43
8.784,0.00,0.23,-0.08,0.24
8.794,-0.09,0.00,-0.22,0.24
8.804,0.08,-0.22,-0.00,0.24
8.814,-0.03,-0.27,-0.17,0.32
8.824,0.02,-0.27,0.04,0.27
8.834,0.11,-0.33,0.08,0.36
8.844,0.28,0.09,-0.46,0.55
8.855,0.60,0.48,-0.08,0.77
8.864,0.47,0.35,-0.06,0.59
8.875,-0.04,0.00,0.18,0.19
8.885,-0.36,-0.07,-0.22,0.43
8.895,-0.49,-0.19,0.22,0.57
8.905,-0.15,0.14,0.32,0.38
8.915,-0.20,0.41,-0.26,0.52
8.925,0.19,-0.08,0.06,0.21
8.935,-0.04,-0.17,-0.33,0.37
8.945,-0.03,-0.26,0.01,0.26
8.955,0.04,-0.14,-0.09,0.17
8.965,0.08,-0.36,0.11,0.38
8.975,0.41,-0.08,-0.46,0.62
8.985,0.56,0.36,-0.14,0.68
8.995,0.51,0.32,-0.07,0.61
9.006,0.01,-0.07,0.40,0.40
9.016,-0.29,0.01,-0.43,0.52
9.026,-0.69,0.25,0.31,0.80
9.036,-0.35,0.32,0.28,0.55
9.046,-0.12,0.21,-0.13,0.28
9.056,0.15,-0.12,-0.11,0.22
9.066,0.20,-0.48,-0.08,0.52
9.076,0.03,-0.33,-0.21,0.39
9.086,0.02,-0.21,0.09,0.23
9.096,-0.12,-0.05,-0.01,0.13
9.106,0.39,0.01,-0.47,0.61
9.117,0.59,0.24,0.08,0.64
9.127,0.56,0.28,-0.38,0.74
9.137,0.15,-0.16,0.60,0.64
9.147,-0.37,0.05,-0.47,0.60
9.157,-0.80,0.16,0.40,0.91
9.167,-0.38,0.48,0.07,0.62
9.177,-0.15,0.16,0.13,0.26
9.187,0.07,-0.02,-0.27,0.28
9.197,0.38,-0.54,-0.09,0.66
9.207,0.07,-0.40,-0.05,0.41
9.217,-0.03,-0.10,-0.18,0.21
9.228,-0.09,0.02,0.27,0.28
9.238,0.39,0.02,-0.59,0.71
9.248,0.61,0.16,-0.17,0.65
9.258,0.60,0.07,0.30,0.68
9.268,0.12,0.03,-0.20,0.23
9.278,-0.35,-0.12,-0.02,0.37
9.288,-0.67,0.24,0.13,0.72
9.298,-0.43,0.33,0.26,0.60
9.308,-0.13,0.21,-0.10,0.26
9.318,0.09,0.06,-0.16,0.20
9.328,0.26,-0.34,-0.09,0.44
9.339,0.17,-0.47,-0.19,0.53
9.348,-0.06,-0.25,-0.06,0.26
9.359,-0.16,-0.06,0.16,0.23
9.369,0.28,0.10,-0.47,0.55
9.379,0.78,0.16,-0.33,0.86
9.389,0.34,0.01,0.66,0.75
9.399,0.20,0.07,-0.64,0.68
9.409,-0.35,-0.01,0.15,0.38
9.419,-0.46,0.13,0.22,0.53
9.429,-0.47,0.15,0.22,0.54
9.439,-0.27,0.22,-0.11,0.37
9.449,0.06,0.09,-0.17,0.20
9.459,0.14,-0.10,-0.06,0.18
9.470,0.16,-0.47,-0.11,0.51
9.480,0.08,-0.29,-0.21,0.36
9.490,0.15,-0.09,0.17,0.24
9.500,0.34,0.17,-0.21,0.43
9.510,0.65,0.17,-0.44,0.81
9.520,0.26,-0.02,0.54,0.60
9.530,0.05,-0.06,-0.36,0.37
9.540,-0.53,0.09,-0.21,0.57
9.550,-0.47,0.35,0.56,0.82
9.560,-0.38,0.30,0.04,0.49
9.570,-0.12,0.09,-0.20,0.25
9.581,0.23,-0.21,-0.08,0.32
9.591,0.08,-0.16,-0.15,0.23
9.601,0.21,-0.29,-0.14,0.38
9.611,0.04,-0.26,-0.10,0.28
9.621,0.13,-0.14,-0.01,0.19
9.631,0.37,0.21,-0.13,0.45
9.641,0.64,0.16,0.07,0.66
9.651,0.18,0.06,-0.21,0.28
9.661,-0.17,-0.06,0.08,0.20
9.671,-0.44,0.06,-0.22,0.50
9.681,-0.42,0.24,0.40,0.63
9.691,-0.21,0.26,0.15,0.36
9.702,-0.30,0.18,-0.39,0.52
9.711,0.23,-0.25,0.05,0.34
9.722,0.17,-0.19,-0.17,0.30
9.732,0.12,-0.22,-0.14,0.28
9.742,0.19,-0.34,-0.06,0.40
9.752,0.10,-0.16,-0.10,0.21
9.762,0.52,0.20,-0.02,0.55
9.772,0.45,0.22,0.08,0.51
9.782,0.10,0.09,-0.32,0.35
9.792,-0.20,0.03,0.10,0.23
9.803,-0.67,0.36,-0.06,0.77
9.812,-0.36,0.23,0.47,0.63
9.823,-0.10,0.23,-0.17,0.30
9.833,0.12,-0.19,-0.19,0.29
9.843,0.19,-0.40,-0.04,0.44
9.853,0.16,-0.24,-0.21,0.36
9.863,-0.04,-0.05,-0.18,0.19
9.873,0.14,-0.24,0.06,0.29
9.883,0.17,-0.18,-0.11,0.27
9.893,0.56,0.24,-0.19,0.64
9.903,0.48,0.37,0.20,0.64
9.913,0.08,0.17,-0.25,0.31
9.923,-0.35,-0.03,-0.14,0.38
9.933,-0.44,-0.09,0.27,0.53
9.944,-0.34,0.19,0.29,0.48
9.953,-0.33,0.50,-0.15,0.62
9.964,0.10,-0.04,-0.06,0.13
9.974,0.08,-0.41,-0.14,0.44
9.984,0.17,-0.39,-0.21,0.47
9.994,0.06,-0.10,-0.10,0.15
10.004,0.27,-0.25,-0.06,0.38
10.014,0.31,-0.07,-0.08,0.33
10.024,0.44,0.23,0.05,0.50
10.034,0.41,0.37,-0.03,0.55
10.044,0.01,0.10,-0.16,0.19
10.055,-0.51,0.14,-0.03,0.53
10.065,-0.54,0.35,0.29,0.71
10.075,-0.35,0.14,0.22,0.44
10.085,-0.10,0.20,-0.35,0.42
10.095,0.26,-0.31,0.07,0.42
10.105,0.23,-0.52,-0.24,0.62
10.115,0.01,-0.41,-0.23,0.47
10.125,0.04,-0.02,0.01,0.04
10.135,0.06,0.06,-0.19,0.21
10.145,0.36,-0.04,0.03,0.36
10.155,0.46,0.21,-0.00,0.51
10.165,0.30,0.31,-0.22,0.49
10.175,0.02,0.23,0.08,0.24
10.186,-0.40,-0.02,-0.03,0.40
10.196,-0.49,0.01,0.24,0.54
10.206,-0.31,0.27,-0.04,0.41
10.216,-0.17,0.27,-0.12,0.34
10.226,0.19,-0.20,-0.03,0.27
10.236,0.18,-0.46,-0.35,0.60
10.246,0.15,-0.46,-0.08,0.49
10.256,0.12,-0.14,-0.09,0.21
10.266,0.04,0.03,-0.07,0.09
10.276,0.40,0.04,-0.05,0.40
10.286,0.52,0.28,-0.03,0.59
10.296,0.16,0.32,-0.08,0.37
10.307,-0.03,0.18,-0.12,0.22
10.317,-0.35,-0.06,-0.03,0.36
10.327,-0.38,-0.11,0.36,0.54
10.337,-0.33,0.24,-0.11,0.42
10.347,-0.12,0.38,-0.27,0.48
10.357,0.27,-0.07,0.20,0.34
10.367,0.19,-0.50,-0.54,0.76
10.377,-0.26,-0.56,0.01,0.62
10.387,0.28,-0.23,-0.15,0.39
10.397,-0.00,0.05,0.34,0.35
10.407,0.42,0.38,-0.70,0.90
10.417,0.72,0.16,0.36,0.82
10.428,0.11,0.36,-0.31,0.49
10.438,-0.13,-0.03,0.12,0.18
10.448,-0.26,-0.10,-0.18,0.33
10.458,-0.36,-0.18,0.41,0.58
10.468,-0.30,0.30,-0.17,0.46
10.478,-0.20,0.31,0.04,0.37
10.488,-0.07,0.08,-0.18,0.21
10.498,0.08,-0.41,-0.13,0.44
10.508,0.26,-0.57,-0.19,0.66
10.518,0.17,-0.29,-0.02,0.34
10.528,0.14,0.05,0.07,0.16
10.539,0.45,0.49,-0.46,0.81
10.549,0.44,0.30,0.22,0.58
10.559,0.08,0.27,-0.22,0.36
10.569,-0.09,-0.03,0.08,0.12
10.579,-0.49,-0.00,-0.12,0.50
10.589,-0.23,-0.19,0.41,0.51
10.599,-0.24,0.27,-0.18,0.40
10.609,0.00,0.23,-0.03,0.23
10.619,0.01,-0.12,-0.01,0.12
10.629,0.05,-0.29,-0.39,0.49
10.639,0.13,-0.49,0.14,0.53
10.649,0.10,-0.23,-0.12,0.28
10.660,0.18,0.01,0.14,0.23
10.670,0.53,0.67,-0.66,1.07
10.680,0.44,0.29,0.43,0.68
10.690,0.16,-0.01,-0.32,0.35
10.700,-0.17,-0.21,0.03,0.27
10.710,-0.23,-0.18,-0.10,0.31
10.720,-0.45,0.11,0.45,0.64
10.730,-0.19,0.29,-0.11,0.36
10.740,-0.27,0.25,-0.14,0.39
10.750,0.14,-0.05,-0.12,0.19
10.760,0.10,-0.21,-0.12,0.27
10.770,0.13,-0.40,-0.15,0.45
10.780,0.13,-0.42,0.06,0.44
10.791,0.16,-0.07,-0.14,0.22
10.801,0.52,0.43,-0.42,0.80
10.811,0.47,0.46,0.18,0.68
10.821,0.10,0.15,0.01,0.18
10.831,-0.28,-0.17,-0.11,0.35
10.841,-0.37,-0.19,-0.08,0.43
10.851,-0.21,0.12,0.37,0.44
10.861,-0.15,0.25,0.04,0.29
10.871,-0.07,0.16,-0.21,0.27
10.881,0.02,-0.08,-0.13,0.15
10.891,0.12,-0.22,-0.13,0.28
10.901,0.07,-0.23,-0.10,0.26
10.912,0.04,-0.32,-0.00,0.32
10.922,0.09,-0.19,0.01,0.21
10.932,0.58,0.37,-0.38,0.79
10.942,0.56,0.48,0.00,0.74
10.952,0.07,0.22,0.14,0.27
10.962,-0.06,-0.35,-0.19,0.40
10.972,-0.38,-0.27,-0.21,0.51
10.982,-0.27,0.03,0.68,0.73
10.992,-0.28,0.61,-0.08,0.68
11.002,-0.18,0.28,-0.19,0.38
11.013,-0.01,-0.22,-0.06,0.23
11.023,0.11,-0.32,-0.28,0.44
11.033,0.06,-0.18,-0.02,0.19
11.043,0.29,-0.16,-0.12,0.36
11.053,0.18,-0.24,0.11,0.32
11.063,0.49,0.18,-0.45,0.69
11.073,0.39,0.27,0.23,0.53
11.083,0.16,0.27,-0.22,0.38
11.093,-0.19,-0.07,0.15,0.25
11.103,-0.40,-0.13,-0.30,0.52
11.113,-0.38,-0.02,0.54,0.66
11.123,-0.20,0.45,-0.06,0.49
11.133,-0.11,0.33,-0.20,0.40
11.144,0.16,-0.26,0.06,0.31
11.154,0.04,-0.33,-0.33,0.47
11.164,-0.06,-0.24,0.03,0.25
11.174,0.10,-0.01,-0.20,0.23
11.184,0.21,-0.23,0.22,0.38
11.194,0.47,0.20,-0.44,0.67
11.204,0.54,0.15,0.35,0.66
11.214,0.25,0.27,-0.49,0.61
11.224,-0.16,-0.04,0.31,0.35
11.234,-0.37,-0.22,-0.27,0.51
11.244,-0.44,-0.06,0.33,0.55
11.255,-0.33,0.41,0.09,0.53
11.265,-0.13,0.53,-0.40,0.68
11.275,0.02,-0.17,0.34,0.38
11.285,0.13,-0.40,-0.50,0.66
11.295,0.10,-0.40,0.06,0.41
11.305,0.21,-0.07,-0.13,0.25
11.315,0.12,0.04,0.02,0.13
11.325,0.59,0.05,-0.30,0.66
11.335,0.26,0.15,0.32,0.44
11.345,0.35,0.13,-0.43,0.57
11.355,-0.23,0.02,0.03,0.23
11.365,-0.28,-0.15,0.11,0.34
11.376,-0.42,-0.01,0.25,0.49
11.386,-0.35,0.41,-0.12,0.55
11.396,0.07,0.35,-0.05,0.36
11.406,0.06,-0.06,-0.11,0.14
11.416,-0.02,-0.47,-0.32,0.57
11.426,0.08,-0.39,-0.13,0.41
11.436,0.11,-0.05,-0.07,0.14
11.446,0.25,0.10,-0.06,0.28
11.456,0.52,0.09,-0.09,0.54
11.466,0.40,0.09,0.10,0.43
11.476,0.18,0.05,-0.27,0.33
11.486,-0.21,-0.01,-0.03,0.21
11.496,-0.31,-0.06,0.06,0.32
11.507,-0.41,-0.02,0.38,0.56
11.517,-0.48,0.42,-0.11,0.65
11.527,-0.07,0.26,-0.11,0.29
11.537,0.12,-0.02,-0.08,0.14
11.547,0.17,-0.33,-0.15,0.40
11.557,0.09,-0.41,-0.23,0.48
11.567,0.28,-0.24,-0.04,0.37
11.577,0.12,0.15,-0.05,0.20
11.587,0.44,0.24,0.09,0.51
11.597,0.51,0.07,-0.07,0.52
11.607,0.07,0.03,-0.20,0.22
11.617,-0.21,-0.02,-0.11,0.24
11.628,-0.46,0.07,0.28,0.55
11.638,-0.29,0.10,0.22,0.37
11.648,-0.31,0.41,-0.24,0.57
11.658,-0.02,0.14,0.01,0.14
11.668,0.21,-0.19,-0.21,0.35
11.678,0.01,-0.38,-0.18,0.42
11.688,0.15,-0.42,-0.08,0.45
11.698,0.13,-0.10,-0.25,0.30
11.708,0.30,0.16,0.12,0.36
11.718,0.46,0.36,-0.02,0.59
11.728,0.41,0.04,-0.10,0.43
11.739,0.05,0.01,-0.25,0.25
11.749,-0.37,-0.06,0.15,0.41
11.759,-0.40,0.16,0.08,0.44
11.769,-0.38,0.29,0.31,0.57
11.779,-0.28,0.32,-0.22,0.48
11.789,0.01,-0.09,-0.15,0.18
11.799,0.25,-0.32,-0.15,0.43
11.809,0.14,-0.33,-0.09,0.37
11.819,0.18,-0.26,-0.73,0.79
11.829,-0.06,0.01,0.48,0.48
11.839,0.46,0.10,-0.23,0.52
11.849,0.34,0.23,0.07,0.42
11.860,0.46,0.16,-0.13,0.51
