time,ax,ay,az,atotal
0.000,-0.42,0.31,0.24,0.58
0.010,-0.28,0.37,-0.15,0.49
0.020,0.00,0.01,-0.21,0.21
0.030,0.14,-0.21,-0.07,0.27
0.040,0.21,-0.19,-0.15,0.33
0.051,0.20,-0.32,-0.17,0.41
0.060,0.08,-0.20,-0.09,0.23
0.071,0.28,0.02,-0.08,0.29
0.081,0.48,0.31,0.08,0.58
0.091,0.43,0.32,-0.06,0.54
0.101,0.03,0.09,-0.15,0.18
0.111,-0.25,-0.01,-0.16,0.29
0.121,-0.31,-0.05,0.40,0.51
0.131,-0.33,0.44,0.06,0.55
0.141,-0.14,0.30,-0.11,0.35
0.151,0.03,-0.15,-0.25,0.30
0.161,0.30,-0.43,0.01,0.53
0.172,0.04,-0.15,-0.21,0.26
0.182,0.04,-0.13,-0.13,0.19
0.192,0.14,-0.18,-0.06,0.24
0.202,0.35,0.09,-0.11,0.38
0.212,0.47,0.35,0.18,0.61
0.222,0.49,0.33,-0.18,0.62
0.232,0.05,0.01,-0.08,0.09
0.242,-0.36,-0.20,0.03,0.41
0.252,-0.43,-0.03,0.22,0.48
0.262,-0.40,0.55,0.04,0.68
0.272,-0.09,0.26,-0.00,0.27
0.282,0.07,-0.14,-0.37,0.40
0.293,0.27,-0.44,0.02,0.52
0.303,0.13,-0.14,-0.27,0.33
0.313,0.11,-0.03,-0.16,0.19
0.323,0.25,-0.17,0.06,0.31
0.333,0.31,0.12,-0.10,0.35
0.343,0.40,0.30,-0.01,0.50
0.353,0.34,0.35,-0.13,0.51
0.363,-0.07,-0.00,-0.00,0.07
0.373,-0.38,-0.14,-0.04,0.41
0.383,-0.37,-0.01,0.30,0.47
0.393,-0.37,0.52,-0.01,0.63
0.403,0.04,0.31,-0.20,0.38
0.413,0.17,-0.31,-0.08,0.36
0.424,0.19,-0.41,-0.23,0.51
0.434,0.09,-0.27,-0.08,0.29
0.444,-0.05,0.03,-0.12,0.14
0.454,0.16,0.02,-0.10,0.19
0.464,0.36,0.11,0.10,0.39
0.474,0.53,0.28,-0.02,0.60
0.484,0.33,0.30,-0.21,0.49
0.494,-0.06,0.05,-0.11,0.14
0.504,-0.36,-0.15,0.25,0.47
0.514,-0.49,0.08,0.13,0.51
0.525,-0.31,0.42,-0.18,0.55
0.535,-0.01,0.26,-0.04,0.27
0.545,0.22,-0.26,-0.13,0.37
0.555,0.19,-0.44,-0.26,0.54
0.565,0.16,-0.24,-0.15,0.32
0.575,0.11,0.06,-0.05,0.13
0.585,0.10,0.09,-0.12,0.18
0.595,0.37,0.03,0.12,0.39
0.605,0.49,0.22,-0.11,0.55
0.615,0.25,0.29,-0.18,0.42
0.625,-0.06,0.11,0.01,0.13
0.636,-0.36,-0.17,0.28,0.49
0.645,-0.38,0.06,-0.12,0.40
0.656,-0.32,0.26,0.09,0.42
0.666,0.08,0.22,-0.16,0.29
0.676,0.16,-0.15,-0.18,0.28
0.686,0.24,-0.46,-0.15,0.54
0.696,0.05,-0.33,-0.13,0.36
0.706,0.04,-0.02,-0.14,0.15
0.716,0.14,0.28,0.03,0.31
0.726,0.50,0.16,0.12,0.54
0.736,0.51,0.21,-0.24,0.60
0.746,0.18,0.17,-0.10,0.27
0.757,-0.18,0.03,-0.02,0.19
0.767,-0.36,-0.13,0.20,0.44
0.776,-0.35,0.01,0.12,0.37
0.787,-0.31,0.37,-0.17,0.51
0.797,0.13,0.17,-0.03,0.21
0.807,0.16,-0.11,-0.21,0.28
0.817,0.22,-0.46,-0.12,0.52
0.827,0.08,-0.31,-0.23,0.39
0.837,0.13,0.01,-0.06,0.15
0.847,0.33,0.28,-0.04,0.44
0.857,0.39,0.31,0.12,0.52
0.867,0.32,0.19,-0.23,0.44
0.878,0.08,0.05,-0.16,0.19
0.888,-0.21,-0.04,-0.06,0.22
0.898,-0.28,-0.09,0.16,0.34
0.908,-0.17,-0.00,0.22,0.28
0.918,-0.27,0.41,-0.20,0.53
0.928,-0.01,0.22,-0.06,0.22
0.938,0.16,-0.16,-0.18,0.29
0.948,0.14,-0.39,-0.14,0.44
0.958,0.12,-0.31,-0.22,0.40
0.968,0.12,-0.09,-0.04,0.15
0.978,0.29,0.33,0.04,0.44
0.989,0.35,0.41,-0.03,0.54
0.999,0.41,0.09,-0.04,0.43
1.009,0.09,0.06,-0.27,0.29
1.019,-0.09,-0.19,0.04,0.22
1.029,-0.29,0.01,0.15,0.33
1.039,-0.33,0.15,0.25,0.44
1.049,-0.30,0.36,-0.26,0.54
1.059,-0.05,0.10,0.00,0.11
1.069,0.20,-0.16,-0.19,0.32
1.079,0.16,-0.22,-0.05,0.28
1.089,0.21,-0.38,-0.13,0.45
1.099,0.07,-0.18,-0.15,0.24
1.110,0.29,0.24,0.04,0.38
1.120,0.41,0.47,0.16,0.64
1.130,0.41,0.29,-0.26,0.56
1.140,-0.02,-0.08,-0.13,0.15
1.150,-0.19,-0.19,-0.02,0.27
1.160,-0.25,-0.02,0.16,0.29
1.170,-0.29,0.27,0.20,0.44
1.180,-0.15,0.30,-0.07,0.35
1.190,0.01,0.02,-0.24,0.24
1.200,0.15,-0.29,-0.07,0.34
1.210,0.11,-0.25,-0.12,0.30
1.220,0.04,-0.16,-0.16,0.23
1.231,0.23,-0.17,-0.09,0.29
1.241,0.28,0.10,0.07,0.30
1.251,0.40,0.41,-0.04,0.58
1.261,0.39,0.40,-0.11,0.57
1.271,0.10,-0.09,-0.05,0.15
1.281,-0.21,-0.25,-0.23,0.40
1.291,-0.29,-0.17,0.30,0.45
1.301,-0.26,0.37,0.17,0.48
1.311,-0.30,0.57,-0.07,0.65
1.321,0.07,-0.01,-0.20,0.22
1.331,0.02,-0.35,-0.27,0.45
1.342,0.22,-0.32,0.23,0.45
1.352,0.17,-0.10,-0.54,0.57
1.362,0.06,-0.21,0.14,0.26
1.372,0.34,0.09,-0.12,0.37
1.382,0.34,0.25,0.29,0.51
1.392,0.39,0.42,-0.35,0.67
1.402,0.13,0.16,-0.15,0.25
1.412,-0.27,-0.22,0.15,0.38
1.422,-0.43,-0.08,0.04,0.44
1.432,-0.19,0.23,0.15,0.34
1.442,-0.18,0.57,-0.01,0.60
1.452,0.03,-0.07,-0.09,0.11
1.462,0.07,-0.44,-0.35,0.57
1.473,0.18,-0.37,-0.00,0.41
1.483,0.11,-0.08,-0.16,0.21
1.493,0.05,0.03,-0.16,0.17
1.503,0.26,-0.06,0.06,0.27
1.513,0.32,0.15,0.02,0.36
1.523,0.50,0.35,-0.13,0.63
1.533,0.28,0.29,-0.05,0.41
1.543,-0.21,-0.05,-0.14,0.26
1.553,-0.43,-0.12,0.25,0.52
1.563,-0.36,0.17,0.21,0.45
1.573,-0.25,0.54,-0.16,0.61
1.584,0.06,0.09,-0.09,0.14
1.593,0.24,-0.46,-0.10,0.53
1.604,0.08,-0.44,-0.22,0.50
1.614,0.19,-0.13,-0.15,0.28
1.624,0.08,0.09,0.05,0.13
1.634,0.31,0.04,-0.11,0.33
1.644,0.37,0.05,0.18,0.42
1.654,0.42,0.31,-0.37,0.64
1.664,-0.02,0.18,0.20,0.27
1.674,-0.14,0.09,-0.26,0.31
1.684,-0.31,-0.16,0.36,0.50
1.694,-0.29,0.19,0.07,0.35
1.705,-0.28,0.42,-0.07,0.51
1.715,0.05,0.04,-0.17,0.19
1.725,0.18,-0.40,-0.14,0.46
1.735,0.20,-0.41,-0.14,0.48
1.745,0.10,-0.31,-0.05,0.33
1.755,0.08,0.04,-0.22,0.24
1.765,0.21,0.21,0.09,0.31
1.775,0.56,0.03,0.14,0.58
1.785,0.40,0.27,-0.30,0.57
1.795,0.10,0.17,-0.03,0.20
1.805,-0.20,0.10,-0.08,0.24
1.815,-0.35,-0.16,0.39,0.55
1.826,-0.38,0.13,-0.08,0.41
1.836,-0.29,0.39,-0.12,0.50
1.846,0.11,0.04,-0.02,0.12
1.856,0.09,-0.25,-0.24,0.36
1.866,0.25,-0.48,-0.09,0.55
1.876,0.11,-0.24,-0.18,0.32
1.886,0.22,-0.04,0.00,0.23
1.896,0.30,0.26,-0.00,0.39
1.906,0.45,0.16,0.06,0.48
1.916,0.32,0.12,-0.19,0.38
1.926,0.01,0.09,-0.16,0.19
1.936,-0.35,0.09,0.11,0.38
1.946,-0.37,0.11,0.35,0.52
1.957,-0.20,0.18,0.07,0.27
1.967,-0.16,0.37,-0.31,0.51
1.977,0.18,-0.10,0.06,0.21
1.987,0.02,-0.23,-0.24,0.34
1.997,0.26,-0.61,-0.01,0.66
2.007,-0.02,-0.19,-0.40,0.44
2.017,0.24,0.06,0.11,0.27
2.027,0.40,0.36,0.05,0.54
2.037,0.40,0.27,-0.03,0.48
2.047,0.28,0.08,-0.16,0.33
2.057,-0.07,-0.04,-0.10,0.13
2.068,-0.28,-0.06,0.05,0.29
2.078,-0.28,0.14,0.39,0.50
2.088,-0.40,0.36,-0.04,0.54
2.098,-0.11,0.23,-0.28,0.38
2.108,0.27,-0.28,0.08,0.39
2.118,0.01,-0.18,-0.31,0.35
2.128,0.13,-0.32,-0.10,0.36
2.138,0.15,-0.24,-0.10,0.30
2.148,0.26,0.04,0.04,0.26
2.158,0.41,0.21,0.03,0.46
2.168,0.42,0.38,-0.13,0.58
2.179,0.16,0.08,0.04,0.19
2.189,-0.18,-0.01,-0.30,0.35
2.199,-0.33,-0.15,0.29,0.46
2.209,-0.31,0.33,0.17,0.48
2.219,-0.31,0.45,0.02,0.55
2.229,0.04,0.03,-0.28,0.28
2.239,0.15,-0.47,-0.07,0.50
2.249,0.20,-0.30,-0.17,0.39
2.259,0.13,-0.11,-0.15,0.23
2.269,0.08,-0.20,-0.02,0.22
2.279,0.15,0.04,-0.16,0.22
2.290,0.41,0.32,0.13,0.54
2.299,0.55,0.36,-0.04,0.66
2.310,0.25,-0.03,-0.22,0.33
2.320,-0.26,-0.10,-0.11,0.30
2.330,-0.38,-0.12,0.49,0.63
2.340,-0.49,0.45,-0.02,0.66
2.350,-0.23,0.51,-0.14,0.57
2.360,0.13,-0.11,0.01,0.17
2.370,0.18,-0.40,-0.32,0.54
2.380,0.23,-0.37,0.01,0.43
2.390,0.09,-0.04,-0.22,0.24
2.400,0.10,-0.15,0.02,0.18
2.410,0.27,0.05,-0.05,0.28
2.421,0.43,0.19,0.13,0.49
2.431,0.45,0.35,-0.20,0.60
2.441,0.04,0.15,-0.17,0.23
2.451,-0.32,-0.15,0.19,0.40
2.461,-0.47,-0.06,0.23,0.53
2.471,-0.39,0.40,-0.10,0.57
2.481,-0.07,0.44,-0.01,0.45
2.491,0.27,-0.17,-0.00,0.32
2.501,0.05,-0.41,-0.40,0.57
2.511,0.15,-0.28,-0.06,0.33
2.521,0.12,-0.08,-0.01,0.15
2.531,0.04,-0.05,-0.23,0.24
2.541,0.33,0.04,-0.01,0.33
2.552,0.44,0.26,0.19,0.55
2.562,0.40,0.33,-0.19,0.56
2.572,0.01,0.19,-0.23,0.30
2.582,-0.32,-0.15,0.24,0.43
2.592,-0.42,-0.05,0.19,0.46
2.602,-0.42,0.34,-0.07,0.55
2.612,-0.14,0.36,-0.11,0.40
2.622,0.26,-0.20,-0.08,0.34
2.632,0.21,-0.42,-0.25,0.53
2.642,0.19,-0.31,-0.10,0.38
2.653,0.11,-0.07,-0.07,0.15
2.663,0.12,0.11,-0.11,0.20
2.673,0.35,0.01,0.13,0.37
2.683,0.35,0.21,-0.06,0.41
2.693,0.35,0.28,-0.18,0.48
2.703,-0.02,0.17,-0.01,0.17
2.713,-0.30,-0.16,0.09,0.36
2.723,-0.35,-0.07,0.25,0.44
2.733,-0.29,0.34,-0.12,0.46
2.743,-0.09,0.29,-0.01,0.30
2.753,0.11,-0.03,-0.11,0.16
2.763,0.17,-0.47,-0.14,0.52
2.774,0.10,-0.38,-0.20,0.44
2.784,0.16,-0.13,-0.06,0.22
2.794,0.12,0.15,-0.10,0.22
2.804,0.40,0.18,0.13,0.45
2.814,0.43,0.22,-0.04,0.48
2.824,0.24,0.20,-0.19,0.37
2.834,-0.02,0.03,-0.12,0.13
2.844,-0.32,-0.12,0.17,0.38
2.854,-0.22,-0.21,0.30,0.42
2.864,-0.40,0.29,-0.27,0.56
2.874,-0.06,0.36,0.02,0.37
2.885,0.07,0.09,-0.11,0.16
2.894,0.12,-0.42,-0.23,0.49
2.905,0.17,-0.44,-0.16,0.50
2.915,0.19,-0.17,-0.01,0.26
2.925,0.25,0.19,-0.17,0.36
2.935,0.37,0.30,0.23,0.52
2.945,0.38,0.17,-0.08,0.43
2.955,0.10,0.08,-0.33,0.35
2.965,-0.05,-0.10,0.05,0.12
2.975,-0.32,-0.03,0.12,0.34
2.985,-0.23,-0.02,0.29,0.37
2.995,-0.31,0.36,-0.16,0.50
3.006,0.04,0.23,-0.02,0.23
3.016,0.08,-0.08,-0.21,0.24
3.026,0.03,-0.30,-0.13,0.32
3.036,0.17,-0.41,-0.13,0.46
3.046,0.08,-0.10,-0.12,0.18
3.056,0.28,0.26,0.00,0.38
3.066,0.42,0.43,0.11,0.61
3.076,0.46,0.12,-0.14,0.49
3.086,0.13,0.04,-0.13,0.19
3.096,-0.39,-0.10,-0.09,0.41
3.106,-0.20,-0.08,0.11,0.24
3.116,-0.20,0.25,0.03,0.32
3.127,-0.13,0.28,0.83,0.89
3.137,0.14,0.13,-0.89,0.91
3.147,-0.30,-0.37,-0.02,0.47
3.157,0.18,-0.16,0.03,0.24
3.167,0.17,-0.27,-0.14,0.35
3.177,0.34,-0.25,-0.17,0.46
3.187,0.30,0.11,0.05,0.32
3.197,0.42,0.43,-0.15,0.62
3.207,0.25,0.33,0.17,0.44
3.217,0.17,-0.08,-0.20,0.28
3.227,-0.22,-0.14,-0.20,0.33
3.238,-0.26,-0.09,0.26,0.38
3.248,-0.22,0.25,0.20,0.39
3.258,-0.30,0.33,-0.02,0.44
3.268,-0.02,0.12,-0.17,0.21
3.278,0.09,-0.24,-0.04,0.26
3.288,0.13,-0.29,-0.16,0.35
3.298,0.10,-0.05,-0.28,0.30
3.308,0.16,-0.27,0.20,0.37
3.318,0.16,-0.09,-0.07,0.20
3.328,0.53,0.34,-0.52,0.82
3.338,0.47,0.33,0.41,0.71
3.348,0.25,0.21,-0.35,0.48
3.358,-0.29,-0.23,0.07,0.37
3.369,-0.41,-0.17,-0.03,0.44
3.378,-0.22,0.09,0.36,0.43
3.389,-0.21,0.54,-0.13,0.60
3.399,0.07,0.13,-0.03,0.15
3.409,-0.05,-0.37,-0.13,0.40
3.419,0.12,-0.25,-0.34,0.43
3.429,0.20,-0.16,0.13,0.29
3.439,0.15,-0.21,-0.25,0.36
3.449,0.15,-0.18,0.08,0.25
3.459,0.58,0.29,-0.37,0.75
3.469,0.50,0.27,0.37,0.68
3.479,0.25,0.16,-0.47,0.56
3.490,-0.35,0.02,0.14,0.38
3.500,-0.60,0.37,0.11,0.71
3.510,-0.38,0.18,0.36,0.55
3.520,-0.02,0.16,-0.15,0.22
3.530,0.22,-0.12,-0.18,0.31
3.540,0.17,-0.42,-0.03,0.46
3.550,0.01,-0.30,-0.19,0.36
3.560,0.01,-0.06,-0.11,0.12
3.570,0.04,0.06,-0.05,0.09
3.580,0.25,-0.14,-0.07,0.29
3.590,0.39,0.13,-0.08,0.42
3.601,0.50,0.27,0.12,0.58
3.611,0.36,0.26,-0.29,0.53
3.621,-0.24,0.08,0.02,0.25
3.631,-0.47,-0.01,0.09,0.48
3.641,-0.39,0.04,0.28,0.48
3.651,-0.29,0.35,-0.03,0.45
3.661,-0.01,0.29,-0.27,0.39
3.671,0.26,-0.40,0.02,0.48
3.681,0.13,-0.49,-0.22,0.55
3.691,0.09,-0.25,-0.10,0.28
3.701,0.06,0.08,-0.12,0.16
3.711,0.28,0.05,-0.04,0.29
3.722,0.45,0.01,0.12,0.46
3.731,0.41,0.23,-0.15,0.50
3.742,0.26,0.21,-0.18,0.38
3.752,-0.18,0.08,0.03,0.20
3.762,-0.40,-0.09,0.15,0.44
3.772,-0.37,0.09,0.12,0.40
3.782,-0.22,0.40,-0.04,0.46
3.792,0.05,0.19,-0.02,0.20
3.802,0.18,-0.29,-0.31,0.46
3.812,0.16,-0.55,-0.06,0.58
3.822,0.08,-0.30,-0.17,0.36
3.832,0.01,-0.01,-0.09,0.09
3.842,0.19,0.21,-0.05,0.29
3.853,0.50,0.07,0.11,0.52
3.863,0.44,0.13,-0.09,0.47
3.873,0.23,0.15,-0.23,0.36
3.883,-0.15,0.06,-0.10,0.19
3.893,-0.33,-0.08,0.35,0.49
3.903,-0.37,0.11,0.21,0.44
3.913,-0.42,0.40,-0.24,0.62
3.923,0.02,0.15,-0.08,0.17
3.933,0.13,-0.11,-0.11,0.20
3.943,0.19,-0.47,-0.15,0.53
3.954,0.13,-0.34,-0.18,0.40
3.964,0.19,-0.15,0.03,0.24
3.974,0.30,0.20,-0.13,0.38
3.984,0.38,0.22,0.21,0.48
3.994,0.46,0.19,-0.23,0.55
4.004,0.05,0.11,-0.10,0.16
4.014,-0.19,0.01,-0.08,0.21
4.024,-0.42,0.11,0.29,0.53
4.034,-0.35,0.11,0.23,0.43
4.044,-0.18,0.32,-0.30,0.47
4.054,0.10,-0.09,0.05,0.14
4.064,0.22,-0.20,-0.29,0.41
4.074,0.07,-0.37,-0.01,0.37
4.085,0.09,-0.32,-0.19,0.38
4.094,0.10,-0.09,-0.13,0.18
4.105,0.32,0.27,0.08,0.43
4.115,0.47,0.38,-0.02,0.60
4.125,0.46,0.07,-0.09,0.48
4.135,0.06,0.02,-0.14,0.15
4.145,-0.26,-0.07,-0.07,0.28
4.155,-0.32,0.10,0.32,0.47
4.165,-0.43,0.21,0.25,0.53
4.175,-0.23,0.31,-0.42,0.57
4.185,0.08,-0.12,0.07,0.16
4.195,0.29,-0.26,-0.12,0.41
4.206,0.06,-0.24,-0.12,0.27
4.216,0.17,-0.35,-0.22,0.45
4.226,0.14,-0.13,-0.03,0.19
4.236,0.37,0.19,0.06,0.42
4.246,0.52,0.39,0.01,0.66
4.256,0.17,0.21,-0.16,0.31
4.266,-0.04,-0.02,-0.20,0.21
4.276,-0.30,-0.10,0.11,0.34
4.286,-0.29,0.19,0.35,0.49
4.296,-0.32,0.38,-0.03,0.49
4.306,-0.07,0.14,-0.29,0.33
4.317,0.05,-0.33,-0.07,0.34
4.327,0.22,-0.38,-0.21,0.49
4.337,0.14,-0.04,-0.15,0.21
4.347,0.10,-0.16,0.02,0.19
4.357,0.14,-0.14,-0.23,0.30
4.367,0.37,0.18,0.15,0.43
4.377,0.50,0.42,-0.01,0.65
4.387,0.33,0.27,-0.17,0.46
4.397,-0.03,-0.12,-0.02,0.13
4.407,-0.40,-0.19,0.09,0.45
4.417,-0.37,0.16,0.36,0.53
4.427,-0.41,0.47,-0.09,0.63
4.438,-0.02,0.09,-0.16,0.18
4.447,0.10,-0.27,-0.08,0.30
4.458,0.22,-0.38,-0.11,0.46
4.468,0.13,-0.14,-0.15,0.24
4.478,0.15,-0.11,-0.20,0.27
4.488,0.25,-0.07,0.14,0.30
4.498,0.40,0.15,0.02,0.43
4.508,0.36,0.41,-0.20,0.58
4.518,0.17,0.26,-0.02,0.32
4.528,-0.20,-0.04,-0.13,0.24
4.538,-0.38,-0.15,0.31,0.51
4.548,-0.37,0.09,0.16,0.42
4.559,-0.24,0.55,-0.35,0.69
4.569,0.16,-0.09,0.23,0.29
4.579,0.16,-0.40,-0.51,0.66
4.589,0.04,-0.40,0.21,0.45
4.599,0.17,-0.09,-0.33,0.39
4.609,0.04,-0.01,-0.02,0.05
4.619,0.26,0.01,-0.14,0.29
4.629,0.37,0.18,0.34,0.53
4.639,0.51,0.33,-0.33,0.69
4.649,0.13,0.27,-0.07,0.31
4.659,-0.14,-0.16,0.15,0.26
4.670,-0.50,-0.02,0.17,0.53
4.680,-0.35,0.28,0.02,0.45
4.690,-0.18,0.44,-0.08,0.48
4.700,0.08,-0.10,-0.07,0.14
4.710,0.23,-0.47,-0.29,0.60
4.720,0.13,-0.37,-0.06,0.40
4.730,0.11,-0.09,-0.11,0.18
4.740,0.01,0.17,-0.12,0.20
4.750,0.37,0.06,0.03,0.38
4.760,0.40,0.13,0.09,0.44
4.770,0.37,0.21,-0.11,0.44
4.780,-0.02,0.34,-0.07,0.35
4.791,-0.22,-0.08,-0.27,0.35
4.801,-0.14,-0.37,0.64,0.75
4.811,-0.28,0.32,-0.34,0.54
4.821,-0.24,0.40,0.00,0.47
4.831,0.03,0.01,0.06,0.07
4.841,0.14,-0.42,-0.34,0.56
4.851,0.12,-0.42,-0.22,0.49
4.861,0.19,-0.14,-0.00,0.24
4.871,0.10,0.12,-0.11,0.20
4.881,0.23,0.24,-0.10,0.34
4.891,0.52,0.12,0.25,0.59
4.901,0.34,0.26,-0.42,0.60
4.912,0.10,0.03,0.10,0.14
4.922,-0.16,-0.03,-0.07,0.17
4.932,-0.42,-0.19,0.38,0.59
4.942,-0.39,0.20,-0.10,0.45
4.952,-0.26,0.40,-0.08,0.49
4.962,0.28,0.10,-0.07,0.30
4.972,0.04,-0.33,-0.14,0.36
4.982,0.19,-0.49,-0.29,0.60
4.992,0.10,-0.26,0.12,0.30
5.002,0.24,0.10,-0.18,0.32
5.012,0.31,0.39,0.00,0.49
5.023,0.53,0.14,0.19,0.58
5.032,0.19,0.19,-0.39,0.48
5.043,-0.04,-0.03,-0.00,0.05
5.053,-0.22,-0.09,-0.02,0.23
5.063,-0.32,-0.04,0.38,0.50
5.073,-0.26,0.22,-0.00,0.34
5.083,-0.17,0.38,-0.12,0.44
5.093,0.16,-0.01,-0.02,0.16
5.103,0.03,-0.29,-0.19,0.35
5.113,0.12,-0.42,-0.14,0.46
5.123,0.09,-0.26,-0.06,0.28
5.133,0.28,0.13,-0.19,0.36
5.144,0.31,0.39,0.18,0.53
5.154,0.52,0.30,-0.18,0.63
5.164,0.28,0.06,-0.12,0.31
5.174,-0.00,-0.08,-0.13,0.16
5.184,-0.35,-0.11,0.05,0.37
5.194,-0.24,0.10,0.27,0.38
5.204,-0.28,0.18,0.06,0.34
5.214,-0.22,0.42,-0.35,0.59
5.224,0.14,-0.05,0.20,0.25
5.234,0.12,-0.22,-0.35,0.43
5.244,0.11,-0.42,-0.06,0.44
5.255,0.19,-0.35,-0.19,0.44
5.264,0.12,-0.01,0.08,0.15
5.275,0.47,0.38,-0.18,0.63
5.285,0.41,0.46,0.05,0.62
5.295,0.23,0.17,-0.16,0.33
5.305,-0.07,-0.16,-0.09,0.20
5.315,-0.31,-0.16,-0.05,0.35
5.325,-0.26,0.17,0.28,0.41
5.335,-0.26,0.33,0.13,0.44
5.345,-0.05,0.12,-0.12,0.17
5.355,0.00,-0.15,-0.22,0.26
5.365,0.19,-0.29,-0.05,0.35
5.375,0.09,-0.22,-0.09,0.25
5.386,0.11,-0.28,-0.15,0.33
5.396,0.04,-0.17,0.09,0.19
5.406,0.45,0.26,-0.19,0.56
5.416,0.66,0.46,-0.36,0.88
5.426,0.22,0.27,0.46,0.58
5.436,-0.03,0.11,-0.36,0.38
5.446,-0.47,-0.25,-0.02,0.54
5.456,-0.35,-0.07,0.44,0.57
5.466,-0.29,0.48,-0.25,0.61
5.476,0.06,0.20,0.19,0.28
5.486,0.10,-0.21,-0.30,0.38
5.496,-0.09,-0.30,-0.08,0.32
5.507,0.22,-0.17,-0.13,0.30
5.517,0.08,-0.15,-0.10,0.20
5.527,0.15,-0.23,0.05,0.28
5.537,0.39,0.16,-0.20,0.46
5.547,0.64,0.38,-0.08,0.75
5.557,0.28,0.25,0.14,0.40
5.567,-0.06,0.10,-0.24,0.27
5.577,-0.51,-0.05,0.07,0.52
5.587,-0.31,-0.07,0.38,0.50
5.597,-0.25,0.39,-0.06,0.46
5.607,-0.04,0.32,-0.15,0.36
5.617,0.25,-0.34,-0.07,0.43
5.627,0.05,-0.41,-0.20,0.46
5.638,0.10,-0.24,-0.15,0.29
5.648,0.02,-0.05,0.10,0.12
5.658,0.13,-0.07,-0.26,0.30
5.668,0.30,0.10,-0.08,0.33
5.678,0.53,0.21,0.24,0.62
5.688,0.40,0.35,-0.35,0.64
5.698,0.07,0.14,-0.03,0.16
5.708,-0.32,-0.18,0.16,0.40
5.718,-0.49,-0.07,0.19,0.53
5.728,-0.40,0.37,-0.02,0.55
5.739,-0.10,0.47,-0.11,0.50
5.748,0.16,-0.18,-0.03,0.24
5.759,0.21,-0.53,-0.32,0.65
5.769,0.10,-0.30,-0.04,0.32
5.779,0.19,-0.09,-0.13,0.25
5.789,0.12,0.05,-0.13,0.18
5.799,0.40,-0.00,0.09,0.41
5.809,0.46,0.20,0.01,0.50
5.819,0.33,0.28,-0.25,0.49
5.829,0.02,0.20,-0.13,0.23
5.839,-0.39,-0.00,0.18,0.43
5.849,-0.39,-0.13,0.34,0.54
5.860,-0.31,0.23,-0.20,0.43
5.870,-0.07,0.39,0.01,0.39
5.880,0.14,-0.06,-0.11,0.19
5.890,0.11,-0.58,-0.12,0.61
5.900,0.08,-0.42,-0.26,0.50
5.910,0.16,-0.10,-0.03,0.19
5.920,0.11,0.13,-0.03,0.18
5.930,0.40,0.07,-0.11,0.42
5.940,0.42,0.13,0.17,0.47
5.950,0.38,0.28,-0.36,0.60
5.960,0.01,0.04,0.08,0.09
5.970,-0.26,-0.00,0.01,0.26
5.980,-0.37,-0.01,0.34,0.50
5.991,-0.59,0.32,0.04,0.67
6.001,-0.05,0.22,-0.30,0.37
6.011,0.11,0.00,-0.03,0.11
6.021,0.26,-0.37,-0.08,0.46
6.031,0.10,-0.46,-0.26,0.54
6.041,0.12,-0.22,-0.14,0.29
6.051,0.21,0.12,0.08,0.26
6.061,0.45,0.25,0.02,0.51
6.071,0.45,0.20,-0.13,0.51
6.082,0.18,0.17,-0.14,0.28
6.092,-0.12,0.01,-0.12,0.17
6.102,-0.36,0.08,0.16,0.40
6.112,-0.33,0.04,0.37,0.50
6.122,-0.25,0.34,-0.24,0.48
6.132,-0.10,0.12,-0.10,0.19
6.142,0.15,-0.18,-0.16,0.28
6.152,0.15,-0.27,-0.13,0.33
6.162,0.22,-0.40,-0.11,0.47
6.172,0.00,-0.19,-0.14,0.24
6.182,0.33,0.13,-0.06,0.36
6.192,0.39,0.41,0.18,0.59
6.203,0.54,0.19,-0.21,0.61
6.212,0.18,0.01,-0.11,0.21
6.223,-0.14,-0.11,-0.06,0.19
6.233,-0.39,0.04,0.26,0.47
6.243,-0.36,0.25,0.16,0.47
6.253,-0.26,0.31,-0.11,0.42
6.263,-0.07,-0.01,-0.11,0.13
6.273,0.21,-0.22,-0.19,0.36
6.283,0.14,-0.22,-0.00,0.26
6.293,0.18,-0.32,-0.25,0.45
6.303,0.06,-0.14,-0.06,0.16
6.313,0.40,0.13,-0.05,0.42
6.324,0.40,0.36,0.10,0.54
6.334,0.42,0.14,-0.05,0.45
6.344,0.08,-0.00,-0.28,0.29
6.354,-0.28,-0.12,0.07,0.31
6.364,-0.28,0.08,0.35,0.46
6.374,-0.37,0.47,-0.03,0.60
6.384,-0.20,0.27,-0.07,0.34
6.394,0.04,-0.21,-0.19,0.29
6.404,0.22,-0.47,-0.08,0.53
6.414,0.07,-0.14,-0.17,0.23
6.425,0.11,-0.10,-0.10,0.18
6.434,0.13,-0.13,-0.07,0.19
6.444,0.31,0.08,0.03,0.32
6.455,0.41,0.35,0.01,0.54
6.465,0.51,0.27,-0.21,0.62
6.475,0.06,-0.04,0.03,0.07
6.485,-0.29,-0.17,-0.07,0.34
6.495,-0.40,0.00,0.37,0.55
6.505,-0.42,0.52,-0.05,0.66
6.515,-0.09,0.27,-0.14,0.31
6.525,0.04,-0.25,-0.11,0.28
6.535,0.18,-0.40,-0.25,0.51
6.545,0.12,-0.18,-0.02,0.21
6.555,0.14,-0.10,-0.16,0.23
6.566,0.12,-0.11,-0.10,0.19
6.576,0.37,0.17,0.08,0.41
6.586,0.51,0.25,0.09,0.58
6.596,0.31,0.32,-0.28,0.53
6.606,-0.10,0.03,-0.04,0.11
6.616,-0.27,-0.13,0.17,0.35
6.626,-0.38,0.05,0.28,0.48
6.636,-0.43,0.56,-0.22,0.74
6.646,0.05,0.16,-0.01,0.17
6.656,0.22,-0.38,-0.14,0.46
6.666,0.10,-0.46,-0.22,0.52
6.676,0.07,-0.24,-0.07,0.26
6.686,-0.02,0.10,-0.19,0.22
6.697,0.27,-0.03,0.02,0.28
6.707,0.39,0.17,0.00,0.42
6.717,0.48,0.22,0.03,0.53
6.727,0.26,0.32,-0.23,0.47
6.737,-0.09,-0.02,0.01,0.09
6.747,-0.35,-0.22,0.29,0.51
6.757,-0.47,0.17,-0.00,0.50
6.767,-0.30,0.44,-0.07,0.54
6.777,0.03,0.15,-0.00,0.15
6.787,0.17,-0.37,-0.26,0.48
6.797,0.15,-0.44,-0.15,0.49
6.808,0.15,-0.16,-0.11,0.24
6.818,0.07,0.09,-0.05,0.12
6.828,0.19,0.03,-0.09,0.21
6.838,0.48,0.13,0.12,0.51
6.848,0.44,0.25,-0.09,0.51
6.858,0.24,0.25,-0.20,0.40
6.868,-0.14,0.03,-0.03,0.15
6.878,-0.33,-0.28,0.36,0.56
6.888,-0.43,0.07,0.01,0.44
6.898,-0.28,0.41,-0.20,0.54
6.908,0.08,0.27,-0.01,0.28
6.919,0.19,-0.30,-0.07,0.36
6.929,0.10,-0.51,-0.40,0.65
6.939,0.07,-0.38,0.05,0.39
6.949,0.06,0.10,-0.16,0.19
6.959,0.29,0.29,-0.09,0.42
6.969,0.49,0.06,0.28,0.57
6.979,0.42,0.29,-0.40,0.65
6.989,0.18,0.15,0.04,0.23
6.999,-0.09,-0.04,-0.05,0.11
7.009,-0.34,-0.26,0.19,0.47
7.019,-0.39,0.08,0.14,0.42
7.029,-0.33,0.42,-0.14,0.55
7.040,0.05,0.21,-0.05,0.22
7.049,0.10,-0.14,-0.22,0.28
7.060,0.20,-0.52,-0.04,0.56
7.070,0.11,-0.33,-0.19,0.40
7.080,0.11,0.01,-0.10,0.15
7.090,0.28,0.34,0.04,0.44
7.100,0.50,0.23,0.18,0.58
7.110,0.35,0.10,-0.33,0.49
7.120,0.09,0.05,-0.11,0.15
7.130,-0.15,-0.05,-0.02,0.16
7.140,-0.29,-0.15,0.25,0.41
7.151,-0.33,0.09,0.09,0.35
7.161,-0.28,0.43,-0.16,0.54
7.171,0.16,0.19,-0.03,0.25
7.181,0.08,-0.19,-0.17,0.27
7.191,0.05,-0.46,-0.22,0.51
7.201,0.12,-0.41,-0.12,0.44
7.211,0.17,-0.03,-0.06,0.19
7.221,0.33,0.39,-0.03,0.51
7.231,0.43,0.37,0.01,0.56
7.241,0.37,0.07,-0.07,0.38
7.251,0.06,-0.08,-0.23,0.25
7.261,-0.14,-0.16,-0.07,0.22
7.271,-0.27,0.06,0.38,0.47
7.282,-0.27,0.20,0.06,0.34
7.292,-0.28,0.33,-0.14,0.45
7.302,-0.04,0.06,-0.05,0.09
7.312,0.07,-0.17,-0.19,0.26
7.322,0.18,-0.27,-0.11,0.34
7.332,0.19,-0.44,-0.15,0.50
7.342,0.14,-0.15,-0.09,0.22
7.352,0.37,0.25,-0.03,0.45
7.362,0.35,0.45,0.09,0.57
7.372,0.40,0.25,-0.19,0.51
7.382,0.04,-0.03,-0.14,0.15
7.393,-0.18,-0.21,-0.08,0.28
7.403,-0.36,0.04,0.41,0.54
7.413,-0.34,0.37,0.02,0.51
7.423,-0.15,0.18,-0.00,0.23
7.433,0.02,-0.09,-0.24,0.26
7.443,0.11,-0.28,-0.10,0.32
7.453,0.11,-0.19,-0.07,0.23
7.463,0.06,-0.19,-0.17,0.27
7.473,0.08,-0.18,-0.11,0.23
7.483,0.37,0.06,0.05,0.38
7.493,0.45,0.39,-0.01,0.59
7.503,0.49,0.37,-0.12,0.62
7.513,0.13,-0.13,-0.00,0.18
7.524,-0.29,-0.18,-0.25,0.43
7.534,-0.34,-0.07,0.45,0.56
7.544,-0.31,0.50,0.01,0.59
7.554,-0.28,0.46,-0.06,0.54
7.564,0.12,-0.12,-0.14,0.22
7.574,0.03,-0.38,-0.21,0.44
7.584,0.23,-0.28,-0.12,0.38
7.594,0.07,-0.08,-0.13,0.17
7.604,0.18,-0.21,-0.09,0.29
7.614,0.26,-0.01,-0.03,0.26
7.625,0.50,0.25,0.00,0.56
7.635,0.38,0.41,-0.13,0.57
7.645,0.16,0.13,-0.14,0.25
7.655,-0.24,-0.21,-0.04,0.32
7.665,-0.45,-0.10,0.24,0.52
7.675,-0.20,0.26,0.11,0.34
7.685,-0.18,0.52,-0.10,0.56
7.695,0.07,-0.08,-0.09,0.14
7.705,0.01,-0.45,-0.17,0.48
7.715,0.15,-0.42,-0.18,0.49
7.725,0.09,-0.18,-0.07,0.21
7.735,0.07,0.08,-0.23,0.25
7.745,0.32,-0.08,0.19,0.38
7.756,0.48,0.27,-0.30,0.63
7.766,0.39,0.28,0.14,0.50
7.776,0.34,0.22,-0.30,0.51
7.786,-0.27,-0.13,0.12,0.32
7.796,-0.41,-0.06,0.18,0.45
7.806,-0.42,0.21,0.12,0.48
7.816,-0.20,0.50,-0.12,0.55
7.826,0.03,0.12,-0.10,0.16
7.836,0.18,-0.52,-0.09,0.56
7.846,0.09,-0.43,-0.29,0.52
7.857,0.12,-0.17,0.06,0.21
7.866,0.05,0.05,-0.15,0.16
7.877,0.31,0.02,-0.09,0.33
7.887,0.58,0.14,0.03,0.60
7.897,0.37,0.23,-0.03,0.44
7.907,0.12,0.19,-0.21,0.31
7.917,-0.26,-0.00,-0.01,0.26
7.927,-0.37,-0.08,0.40,0.56
7.937,-0.41,0.24,-0.08,0.48
7.947,-0.12,0.40,-0.08,0.43
7.957,0.17,0.06,-0.05,0.19
7.967,0.13,-0.55,-0.15,0.58
7.977,-0.03,-0.44,-0.29,0.53
7.988,0.11,-0.25,0.05,0.28
7.998,0.05,0.12,-0.13,0.19
8.008,0.29,0.16,-0.04,0.34
8.018,0.65,0.05,-0.10,0.66
8.028,0.27,0.28,-0.00,0.39
8.038,0.19,0.06,-0.07,0.21
8.048,-0.27,-0.02,-0.16,0.31
8.058,-0.29,-0.09,0.45,0.54
8.068,-0.43,0.33,-0.04,0.55
8.078,-0.22,0.33,-0.13,0.42
8.088,0.04,-0.03,-0.08,0.09
8.098,0.12,-0.28,-0.26,0.40
8.109,0.24,-0.49,-0.06,0.54
8.119,0.01,-0.27,-0.21,0.34
8.129,0.17,-0.04,-0.07,0.19
8.139,0.38,0.32,-0.07,0.50
8.149,0.55,0.17,0.11,0.59
8.159,0.32,0.20,-0.35,0.52
8.169,0.03,-0.03,0.09,0.10
8.179,-0.32,0.07,-0.11,0.35
8.189,-0.37,0.05,0.45,0.58
8.199,-0.25,0.27,-0.06,0.37
8.209,-0.17,0.27,-0.30,0.44
8.220,0.16,-0.16,0.01,0.23
8.229,0.09,-0.36,-0.08,0.38
8.240,0.09,-0.31,-0.32,0.46
8.250,0.04,-0.20,0.06,0.21
8.260,0.25,-0.04,-0.16,0.30
8.270,0.36,0.32,0.06,0.49
8.280,0.55,0.30,-0.06,0.63
8.290,0.29,0.02,-0.08,0.30
8.300,-0.02,-0.15,-0.15,0.21
8.310,-0.29,-0.07,0.02,0.30
8.320,-0.35,0.27,0.34,0.56
8.330,-0.29,0.34,-0.00,0.45
8.341,-0.12,0.13,-0.31,0.36
8.350,0.15,-0.25,-0.06,0.30
8.361,0.07,-0.23,-0.12,0.27
8.371,0.12,-0.30,-0.17,0.37
8.381,0.12,-0.23,-0.15,0.30
8.391,0.21,-0.01,-0.02,0.22
8.401,0.46,0.18,0.10,0.50
8.411,0.43,0.32,-0.16,0.56
8.421,0.18,0.07,-0.00,0.19
8.431,-0.16,-0.11,-0.16,0.25
8.441,-0.40,-0.01,0.18,0.44
8.452,-0.30,0.35,0.21,0.51
8.461,-0.16,0.33,-0.09,0.38
8.472,0.07,-0.01,-0.35,0.36
8.482,0.13,-0.45,0.19,0.51
8.492,0.06,-0.25,-0.47,0.54
8.502,-0.07,-0.21,0.07,0.23
8.512,0.27,-0.09,-0.29,0.41
8.522,0.20,0.05,0.02,0.21
8.532,0.42,0.27,0.26,0.56
8.542,0.53,0.31,-0.36,0.71
8.552,0.14,0.08,-0.06,0.17
8.562,-0.19,-0.13,0.04,0.24
8.572,-0.36,-0.14,0.25,0.46
8.583,-0.40,0.45,-0.05,0.61
8.593,-0.26,0.40,0.11,0.49
8.603,0.18,-0.17,-0.31,0.40
8.613,0.08,-0.49,0.01,0.50
8.623,0.20,-0.22,-0.39,0.49
8.633,0.02,-0.13,0.20,0.24
8.643,0.10,-0.20,-0.32,0.39
8.653,0.29,0.13,-0.14,0.34
8.663,0.44,0.31,0.31,0.62
8.673,0.41,0.34,-0.26,0.59
8.683,0.03,0.12,-0.13,0.18
8.694,-0.28,-0.16,0.11,0.34
8.704,-0.37,-0.07,0.24,0.45
8.714,-0.30,0.35,0.03,0.46
8.724,-0.10,0.37,-0.16,0.41
8.734,0.19,-0.26,0.01,0.32
8.744,0.02,-0.43,-0.28,0.51
8.754,0.12,-0.36,-0.08,0.38
8.764,-0.03,-0.05,-0.14,0.15
8.774,0.09,0.06,-0.12,0.17
8.785,0.40,0.11,0.02,0.42
8.794,0.43,0.27,0.10,0.52
8.805,0.37,0.29,-0.32,0.57
8.815,0.04,0.12,-0.05,0.14
8.825,-0.23,-0.21,0.23,0.38
8.835,-0.40,0.02,0.12,0.42
8.845,-0.42,0.44,-0.11,0.62
8.855,-0.03,0.30,-0.05,0.31
8.865,0.13,-0.29,-0.04,0.32
8.875,0.14,-0.52,-0.33,0.63
8.885,0.09,-0.34,-0.04,0.36
8.895,0.11,0.03,-0.16,0.19
8.905,0.07,0.08,-0.01,0.11
8.915,0.45,0.03,-0.14,0.47
8.925,0.46,0.14,0.17,0.50
8.935,0.26,0.35,-0.34,0.55
8.946,-0.10,0.25,0.08,0.28
8.956,-0.19,-0.19,0.14,0.30
8.966,-0.34,-0.08,0.14,0.38
8.976,-0.23,0.23,0.04,0.32
8.986,-0.03,0.30,-0.19,0.36
8.996,0.17,-0.13,-0.00,0.21
9.006,0.15,-0.49,-0.19,0.54
9.016,0.12,-0.20,-0.18,0.30
9.026,0.45,0.29,0.05,0.54
9.036,0.70,0.71,-0.05,1.00
9.047,0.55,0.53,0.15,0.78
9.057,0.28,0.07,-0.16,0.32
9.067,-0.14,-0.22,-0.24,0.35
9.077,-0.15,-0.30,0.18,0.38
9.087,-0.38,0.37,0.21,0.57
9.097,-0.63,0.66,0.40,1.00
9.107,-0.50,0.61,-0.32,0.85
9.117,-0.43,0.02,-0.01,0.43
9.127,-0.23,-0.19,0.04,0.30
9.137,0.18,-0.44,0.13,0.49
9.147,0.69,-0.35,-0.33,0.84
9.157,0.40,-0.33,-0.23,0.57
9.168,0.54,-0.21,-0.16,0.60
9.178,0.09,0.06,0.06,0.13
9.188,0.02,-0.02,-0.10,0.10
9.198,-0.28,-0.04,-0.06,0.29
9.208,-0.09,0.05,-0.01,0.10
9.218,-0.11,0.12,-0.18,0.24
9.228,0.06,-0.09,-0.06,0.12
9.238,-0.05,-0.10,-0.19,0.22
9.248,0.05,-0.17,-0.19,0.26
9.258,0.21,-0.18,0.01,0.28
9.268,-0.09,-0.16,-0.29,0.34
9.278,0.30,-0.43,-0.05,0.53
9.289,0.19,-0.16,-0.25,0.35
9.299,0.11,0.11,0.04,0.16
9.309,0.29,0.28,-0.09,0.41
9.319,0.30,0.19,0.06,0.36
9.329,0.17,0.29,-0.30,0.45
9.339,0.05,0.08,0.06,0.11
9.349,-0.10,0.02,-0.13,0.16
9.359,-0.31,-0.05,0.34,0.47
9.369,-0.28,0.04,0.06,0.29
9.379,-0.28,0.29,-0.21,0.45
9.389,-0.03,0.12,0.01,0.12
9.399,0.20,-0.20,-0.22,0.36
9.410,0.28,-0.46,-0.17,0.56
9.420,0.21,-0.37,-0.06,0.43
9.430,0.11,-0.05,-0.01,0.12
9.440,0.38,0.36,-0.22,0.57
9.450,0.26,0.33,0.16,0.45
9.460,0.45,0.14,-0.29,0.55
9.470,-0.15,-0.03,0.07,0.17
9.480,-0.16,-0.14,-0.25,0.33
9.490,-0.36,0.11,0.39,0.54
9.500,-0.28,0.23,0.11,0.38
9.510,-0.14,0.23,-0.32,0.42
9.520,0.04,-0.08,-0.02,0.09
9.531,0.18,-0.20,-0.18,0.32
9.541,0.15,-0.21,-0.17,0.31
9.551,0.26,-0.31,-0.10,0.42
9.561,0.03,-0.16,-0.08,0.18
9.571,0.19,0.15,-0.06,0.25
9.581,0.66,0.44,-0.29,0.85
9.591,0.35,0.13,0.33,0.50
9.601,0.10,-0.04,-0.46,0.47
9.611,-0.41,-0.17,0.01,0.44
9.621,-0.44,0.12,0.47,0.66
9.631,-0.34,0.38,-0.04,0.51
9.642,-0.16,0.24,-0.20,0.35
9.652,0.22,-0.12,-0.05,0.26
9.662,0.15,-0.28,-0.19,0.37
9.672,0.10,-0.12,-0.21,0.26
9.682,0.19,-0.31,0.06,0.37
9.692,0.12,-0.28,-0.23,0.38
9.702,0.32,-0.02,-0.00,0.32
9.712,0.74,0.43,-0.27,0.90
9.722,0.21,0.24,0.31,0.44
9.732,-0.14,0.13,-0.46,0.50
9.742,-0.56,0.00,0.16,0.59
9.752,-0.27,0.04,0.23,0.36
9.762,-0.26,0.36,0.07,0.45
9.773,-0.05,0.25,-0.07,0.26
9.783,0.14,-0.23,-0.17,0.32
9.793,0.20,-0.41,-0.16,0.48
9.803,0.10,-0.20,-0.18,0.28
9.813,0.09,-0.06,-0.07,0.12
9.823,0.15,-0.20,-0.14,0.28
9.833,0.19,-0.05,0.08,0.22
9.843,0.60,0.26,-0.14,0.67
9.853,0.45,0.37,-0.05,0.58
9.863,0.05,0.11,-0.07,0.14
9.873,-0.41,-0.13,-0.07,0.44
9.884,-0.46,-0.08,0.29,0.55
9.894,-0.33,0.39,0.04,0.51
9.904,-0.17,0.55,-0.12,0.59
9.914,0.20,-0.18,0.01,0.27
9.924,0.08,-0.46,-0.35,0.58
9.934,0.18,-0.37,-0.09,0.42
9.944,0.22,-0.05,-0.05,0.23
9.954,0.10,-0.08,-0.19,0.23
9.964,0.33,-0.01,-0.01,0.33
9.974,0.51,0.19,0.19,0.57
9.985,0.40,0.28,-0.34,0.60
9.995,-0.16,0.19,-0.00,0.25
10.005,-0.30,-0.19,-0.03,0.36
10.015,-0.41,-0.16,0.30,0.53
10.025,-0.36,0.30,0.11,0.48
10.035,-0.08,0.55,-0.32,0.64
10.045,0.20,-0.08,0.08,0.23
10.055,0.16,-0.48,-0.36,0.62
10.065,0.08,-0.47,-0.06,0.48
10.075,0.13,-0.11,-0.17,0.24
10.085,0.15,0.06,-0.08,0.18
10.095,0.42,-0.09,0.02,0.43
10.105,0.51,0.28,-0.04,0.58
10.116,0.33,0.25,-0.15,0.44
10.126,-0.04,0.14,-0.23,0.27
10.136,-0.34,-0.19,0.23,0.45
10.146,-0.44,-0.02,0.18,0.48
10.156,-0.41,0.29,-0.01,0.50
10.166,-0.08,0.33,-0.15,0.37
10.176,0.13,0.06,-0.06,0.15
10.186,0.24,-0.43,-0.18,0.52
10.196,0.17,-0.45,-0.27,0.55
10.206,0.15,-0.25,0.04,0.29
10.216,0.25,0.11,-0.25,0.37
10.226,0.42,0.15,0.18,0.49
10.237,0.41,0.17,0.01,0.45
10.247,0.19,0.14,-0.35,0.43
10.257,-0.17,0.09,0.06,0.20
10.267,-0.32,-0.00,0.04,0.32
10.277,-0.36,-0.06,0.33,0.49
10.287,-0.36,0.42,-0.12,0.57
10.297,-0.03,0.22,-0.09,0.23
10.307,0.23,-0.18,-0.11,0.31
10.317,0.21,-0.38,-0.21,0.48
10.327,0.08,-0.29,-0.19,0.36
10.337,0.15,-0.20,-0.04,0.25
10.348,0.15,0.08,-0.11,0.20
10.358,0.41,0.31,0.09,0.52
10.368,0.55,0.10,-0.03,0.56
10.378,0.19,0.06,-0.30,0.36
10.388,-0.19,-0.07,0.05,0.21
10.398,-0.30,0.02,0.11,0.32
10.408,-0.40,0.15,0.31,0.53
10.418,-0.37,0.47,-0.27,0.66
10.428,0.09,-0.00,0.04,0.10
10.438,0.19,-0.19,-0.24,0.36
10.448,0.14,-0.25,-0.18,0.34
10.458,0.25,-0.35,-0.04,0.43
10.469,0.08,-0.21,-0.20,0.30
10.479,0.29,0.04,-0.06,0.30
10.489,0.45,0.27,0.19,0.56
10.499,0.41,0.15,-0.20,0.48
10.509,-0.06,0.08,-0.19,0.22
10.519,-0.22,-0.05,0.03,0.23
10.529,-0.31,0.11,0.24,0.41
10.539,-0.39,0.36,0.22,0.58
10.549,-0.13,0.20,-0.26,0.35
10.559,0.04,-0.19,-0.09,0.21
10.569,0.29,-0.28,-0.19,0.45
10.579,0.08,-0.12,-0.20,0.24
10.589,0.14,-0.30,-0.05,0.33
10.600,0.05,-0.20,-0.23,0.31
10.610,0.32,0.09,0.01,0.34
10.620,0.49,0.40,0.18,0.66
10.630,0.45,0.15,-0.34,0.58
10.640,-0.08,0.07,-0.05,0.11
10.650,-0.25,-0.15,0.04,0.30
10.660,-0.42,0.03,0.27,0.50
10.670,-0.37,0.44,-0.01,0.57
10.680,-0.05,0.13,-0.13,0.19
10.690,0.08,-0.19,-0.17,0.27
10.701,0.18,-0.33,-0.17,0.41
10.711,0.15,-0.08,-0.19,0.25
10.721,0.22,-0.21,0.00,0.30
10.731,0.13,-0.17,-0.24,0.32
10.741,0.32,0.03,0.05,0.33
10.751,0.44,0.44,0.03,0.62
10.761,0.30,0.32,-0.11,0.45
10.771,-0.18,-0.02,-0.15,0.23
10.781,-0.40,-0.19,0.09,0.45
10.791,-0.37,0.08,0.34,0.51
10.801,-0.31,0.52,-0.16,0.63
10.811,0.02,0.06,-0.05,0.08
10.822,0.11,-0.31,-0.24,0.41
10.832,0.24,-0.41,-0.12,0.50
10.842,0.05,-0.25,-0.08,0.27
10.852,0.13,-0.01,-0.34,0.37
10.862,0.22,-0.09,0.13,0.27
10.872,0.34,0.14,-0.01,0.36
10.882,0.35,0.34,-0.09,0.50
10.892,0.26,0.33,-0.16,0.45
10.902,-0.09,0.01,-0.05,0.10
10.912,-0.39,-0.20,0.17,0.47
10.922,1.82,-0.45,1.87,2.65
10.932,-2.29,0.23,-0.96,2.50
10.942,1.63,0.70,3.43,3.86
10.953,-0.08,0.07,-2.11,2.12
10.963,0.66,-0.44,-0.70,1.06
10.973,0.14,-0.50,-0.02,0.52
10.983,-0.20,-0.49,-0.26,0.59
10.993,-0.69,-0.38,-0.43,0.89
11.003,-0.12,-0.38,-1.14,1.21
11.013,-0.66,0.25,-0.32,0.77
11.023,0.57,0.65,0.16,0.88
11.033,-0.01,0.51,0.25,0.57
11.043,0.03,-0.04,-0.07,0.08
11.054,-0.23,0.15,0.03,0.27
11.064,-0.35,0.40,-0.01,0.53
11.074,-0.10,0.33,-0.27,0.44
11.084,0.31,-0.20,-0.23,0.44
11.094,0.12,-0.61,0.47,0.77
11.104,0.24,-0.40,-0.89,1.00
11.114,0.12,-0.20,0.28,0.36
11.124,0.48,0.26,-0.11,0.55
11.134,0.19,0.31,0.20,0.41
11.144,0.41,0.28,-0.48,0.69
11.154,-0.04,0.35,-0.05,0.35
11.164,-0.17,0.05,0.17,0.24
11.174,-0.37,-0.20,0.21,0.47
11.185,-0.55,0.17,-0.21,0.61
11.195,-0.14,0.19,0.08,0.25
11.205,0.12,-0.07,-0.14,0.20
11.215,0.34,-0.43,-0.27,0.61
11.225,0.32,-0.36,-0.10,0.49
11.235,0.27,-0.13,-0.12,0.32
11.245,0.11,0.22,-0.08,0.26
11.255,0.19,0.37,0.06,0.42
11.265,0.27,0.13,0.06,0.31
11.275,0.22,0.04,-0.40,0.45
11.286,-0.04,-0.14,0.07,0.16
11.296,-0.19,-0.07,-0.09,0.22
11.306,-0.31,-0.03,0.30,0.43
11.316,-0.16,0.32,0.02,0.36
11.326,-0.22,0.42,-0.22,0.52
11.336,0.15,0.00,-0.02,0.15
11.346,0.02,-0.27,-0.27,0.39
11.356,0.18,-0.51,-0.11,0.55
11.366,0.11,-0.29,-0.12,0.33
11.376,0.38,0.02,-0.04,0.38
11.386,0.37,0.28,0.08,0.47
11.396,0.50,0.24,-0.20,0.59
11.406,0.20,0.13,-0.05,0.24
11.416,-0.16,0.03,-0.14,0.21
11.427,-0.35,-0.09,0.03,0.37
11.437,-0.39,0.22,0.28,0.53
11.447,-0.31,0.31,-0.00,0.44
11.457,-0.06,0.18,-0.26,0.32
11.467,0.18,-0.22,0.05,0.29
11.477,0.21,-0.31,-0.31,0.49
11.487,0.29,-0.41,-0.14,0.52
11.497,0.20,-0.30,-0.01,0.36
11.507,0.17,0.06,-0.18,0.26
11.517,0.23,0.35,0.15,0.45
11.527,0.38,0.42,-0.19,0.60
11.538,0.23,-0.00,0.00,0.23
11.548,-0.08,-0.10,-0.27,0.29
11.558,-0.34,-0.10,0.10,0.36
11.568,-0.17,0.14,0.37,0.43
11.578,-0.37,0.48,-0.15,0.62
11.588,0.02,0.11,-0.17,0.20
11.598,0.05,-0.24,-0.01,0.25
11.608,0.13,-0.28,-0.27,0.41
11.618,0.09,-0.16,-0.12,0.22
11.628,0.23,-0.24,-0.03,0.33
11.638,0.23,-0.16,-0.20,0.34
11.648,0.45,0.07,0.11,0.47
11.658,0.45,0.35,-0.06,0.57
11.669,0.23,0.17,-0.22,0.36
11.679,-0.11,-0.15,0.05,0.19
11.689,-0.46,-0.14,-0.12,0.49
11.699,-0.42,0.24,0.32,0.58
11.709,-0.25,0.62,0.03,0.67
11.719,-0.01,0.25,-0.12,0.27
11.729,0.08,-0.24,-0.25,0.35
11.739,0.23,-0.47,-0.10,0.53
11.749,0.16,-0.27,-0.13,0.34
11.759,0.12,-0.20,-0.19,0.30
11.770,0.28,-0.18,-0.15,0.36
11.780,0.38,0.09,0.22,0.44
11.790,0.41,0.27,-0.08,0.50
11.800,0.27,0.17,-0.22,0.39
11.810,-0.10,0.12,0.00,0.16
11.820,-0.56,0.28,0.08,0.63
11.830,-0.36,0.08,0.30,0.47
11.840,-0.35,0.33,-0.13,0.49
11.850,0.12,0.15,-0.13,0.23
11.860,0.28,-0.37,-0.04,0.46
11.870,0.05,-0.33,-0.41,0.52
11.880,0.12,-0.26,0.09,0.30
11.891,0.12,-0.02,-0.24,0.27
11.901,0.10,-0.18,-0.05,0.21
11.911,0.43,-0.01,-0.00,0.43
11.921,0.47,0.22,0.04,0.52
11.931,0.37,0.29,-0.34,0.58
11.941,-0.10,0.14,0.08,0.19
11.951,-0.47,0.11,-0.07,0.49
11.961,-0.40,0.03,0.25,0.47
11.971,-0.37,0.30,0.02,0.48
11.981,-0.06,0.39,-0.30,0.50
11.992,0.29,-0.29,0.10,0.42
12.002,0.17,-0.56,-0.34,0.68
12.011,0.11,-0.34,-0.16,0.39
12.022,0.26,-0.11,-0.01,0.28
12.032,0.20,-0.01,-0.19,0.28
12.042,0.37,0.07,0.08,0.38
12.052,0.39,0.25,-0.01,0.46
12.062,0.22,0.17,-0.27,0.39
12.072,-0.05,0.11,-0.06,0.13
12.082,-0.47,0.02,0.12,0.49
12.092,-0.31,-0.02,0.16,0.36
12.102,-0.29,0.29,-0.01,0.41
12.112,-0.05,0.27,-0.19,0.34
12.122,0.20,-0.14,-0.16,0.29
12.133,0.22,-0.50,-0.11,0.56
12.143,0.11,-0.38,-0.27,0.48
12.153,0.11,-0.15,-0.06,0.19
12.163,0.23,0.12,-0.14,0.29
12.173,0.36,0.08,0.13,0.39
12.183,0.47,0.11,-0.08,0.48
12.193,0.24,0.15,-0.28,0.40
12.203,-0.03,0.10,-0.03,0.11
12.214,-0.33,-0.04,0.17,0.37
12.223,-0.37,0.04,0.17,0.41
12.233,-0.48,0.34,-0.07,0.59
12.243,-0.02,0.25,-0.18,0.31
12.254,0.13,-0.07,-0.07,0.17
12.264,0.22,-0.50,-0.12,0.56
12.274,0.13,-0.33,-0.29,0.46
12.284,0.23,-0.19,0.02,0.30
12.294,0.26,0.10,-0.16,0.32
12.304,0.43,0.19,0.14,0.49
12.314,0.35,0.16,-0.13,0.41
12.324,0.10,0.12,-0.20,0.25
12.334,-0.17,-0.01,-0.01,0.17
12.344,-0.42,0.13,0.10,0.45
12.354,-0.29,0.03,0.34,0.45
12.365,-0.27,0.31,-0.30,0.51
12.375,0.09,0.04,-0.09,0.14
12.385,0.17,-0.14,-0.19,0.29
12.395,0.15,-0.30,-0.18,0.39
12.405,0.18,-0.41,-0.08,0.45
12.415,-0.01,-0.11,-0.22,0.24
12.425,0.39,0.12,-0.05,0.41
12.435,0.40,0.29,0.19,0.53
12.445,0.38,0.08,-0.22,0.44
12.455,0.06,0.06,-0.19,0.20
12.465,-0.21,-0.04,0.01,0.21
12.475,-0.31,0.05,0.28,0.42
12.486,-0.44,0.28,0.17,0.55
12.496,-0.27,0.32,-0.28,0.50
12.506,0.10,-0.15,-0.03,0.18
12.516,0.15,-0.29,-0.19,0.37
12.526,0.18,-0.19,-0.22,0.34
12.536,0.23,-0.34,0.03,0.41
12.546,0.17,-0.13,-0.26,0.33
12.556,0.30,0.08,0.11,0.33
12.566,0.51,0.31,-0.09,0.61
12.576,0.25,0.19,-0.04,0.32
12.586,-0.01,0.05,-0.20,0.20
12.596,-0.33,-0.06,0.09,0.34
12.607,-0.42,0.15,0.23,0.50
12.617,-0.25,0.37,0.03,0.45
12.627,-0.01,0.08,-0.11,0.14
12.637,0.04,-0.32,-0.22,0.39
12.647,0.19,-0.38,-0.19,0.47
12.657,0.15,-0.02,-0.15,0.21
12.667,0.09,-0.10,-0.06,0.15
12.677,0.14,-0.20,-0.27,0.37
12.687,0.36,0.10,0.10,0.39
12.697,0.48,0.29,0.13,0.58
12.707,0.30,0.25,-0.39,0.55
12.718,-0.05,-0.02,0.09,0.10
12.728,-0.37,-0.08,-0.03,0.38
12.738,-0.41,0.02,0.42,0.59
12.748,-0.35,0.49,-0.22,0.64
12.758,-0.00,0.16,-0.07,0.17
12.768,0.17,-0.30,-0.17,0.38
12.778,0.14,-0.44,-0.16,0.49
12.788,0.19,-0.16,-0.19,0.31
12.798,0.15,-0.11,-0.05,0.19
12.808,0.25,-0.08,-0.10,0.28
12.818,0.37,0.09,0.09,0.39
12.828,0.38,0.33,-0.16,0.52
12.839,0.22,0.19,-0.05,0.29
12.849,-0.21,0.09,-0.09,0.24
12.859,-0.41,-0.06,0.18,0.45
12.869,-0.38,0.02,0.24,0.45
12.879,-0.27,0.46,-0.37,0.65
12.889,0.19,0.01,0.14,0.24
12.899,0.18,-0.36,-0.35,0.53
12.909,0.10,-0.49,-0.10,0.51
12.919,0.15,-0.12,-0.21,0.28
12.929,0.04,0.05,-0.02,0.07
12.939,0.21,-0.08,-0.12,0.25
12.950,0.41,0.12,0.06,0.44
12.960,0.44,0.26,-0.02,0.51
12.970,0.23,0.32,-0.22,0.46
12.980,-0.24,0.02,0.13,0.28
12.990,-0.38,-0.08,0.16,0.42
13.000,-0.47,0.17,0.02,0.50
13.010,-0.28,0.33,-0.06,0.44
13.020,0.14,0.09,-0.13,0.21
13.030,0.24,-0.42,-0.11,0.49
13.040,0.17,-0.45,-0.24,0.54
13.050,0.14,-0.26,-0.07,0.30
13.060,0.14,0.07,-0.15,0.22
13.071,0.28,0.04,-0.00,0.28
13.081,0.37,0.09,0.12,0.40
13.091,0.36,0.16,-0.28,0.48
13.101,0.13,0.26,-0.13,0.32
13.111,-0.26,0.04,0.15,0.30
13.121,-0.39,-0.18,0.15,0.46
13.131,-0.34,0.15,-0.11,0.39
13.141,-0.10,0.37,0.02,0.39
13.151,0.16,0.14,-0.09,0.23
13.161,0.10,-0.34,-0.23,0.42
13.171,0.12,-0.53,-0.20,0.58
13.182,0.19,-0.33,-0.07,0.38
13.192,0.08,0.00,-0.08,0.12
13.202,0.31,0.19,-0.19,0.41
13.212,0.50,0.16,0.29,0.60
13.222,0.30,0.20,-0.32,0.48
13.232,0.08,0.04,-0.19,0.21
13.242,-0.18,0.06,0.09,0.21
13.252,-0.45,-0.11,0.31,0.56
13.262,-0.34,0.19,-0.15,0.42
13.272,-0.24,0.31,0.06,0.39
13.282,0.10,0.11,-0.14,0.20
13.292,0.15,-0.28,-0.23,0.39
13.303,0.21,-0.52,-0.08,0.57
13.313,0.11,-0.30,-0.09,0.33
13.323,0.16,-0.06,0.08,0.19
13.333,0.31,0.32,-0.28,0.53
13.343,0.63,0.22,-0.09,0.67
13.353,0.21,0.26,0.04,0.34
13.363,0.00,0.06,-0.06,0.08
13.373,-0.35,-0.02,-0.21,0.41
13.383,-0.39,-0.02,0.48,0.62
13.393,-0.17,0.13,-0.07,0.22
13.403,-0.19,0.30,-0.16,0.38
13.413,0.14,0.02,0.04,0.14
13.423,0.09,-0.16,-0.32,0.37
13.434,0.13,-0.46,-0.06,0.48
13.444,0.16,-0.37,-0.17,0.44
13.454,0.16,-0.11,0.02,0.19
13.464,0.36,0.37,-0.12,0.54
13.474,0.55,0.31,-0.12,0.65
13.484,0.22,0.09,0.02,0.24
13.494,-0.02,-0.00,-0.12,0.12
13.504,-0.29,-0.02,-0.13,0.32
13.514,-0.31,0.07,0.44,0.54
13.525,-0.26,0.23,-0.05,0.35
13.534,-0.24,0.26,-0.21,0.42
13.544,0.08,-0.10,0.04,0.13
13.555,0.14,-0.26,-0.28,0.41
13.565,0.15,-0.26,-0.15,0.33
13.575,0.29,-0.40,-0.03,0.49
13.585,0.08,-0.22,-0.01,0.24
13.595,0.38,0.22,-0.34,0.56
13.605,0.54,0.44,-0.02,0.70
13.615,0.19,0.31,0.10,0.37
13.625,-0.01,-0.06,-0.14,0.15
13.635,-0.37,-0.16,-0.15,0.43
13.645,-0.31,0.09,0.40,0.51
13.655,-0.26,0.28,0.06,0.39
13.666,-0.17,0.21,-0.17,0.32
13.676,0.08,-0.11,-0.06,0.15
13.686,0.22,-0.36,-0.15,0.45
13.696,0.10,-0.27,-0.16,0.33
13.706,0.08,-0.25,-0.04,0.27
13.716,0.14,-0.26,0.18,0.34
13.726,0.43,0.13,-0.47,0.65
13.736,0.56,0.54,-0.30,0.83
13.746,0.38,0.02,0.62,0.73
13.756,0.01,0.10,-0.55,0.56
13.766,-0.51,-0.05,0.17,0.54
13.776,-0.35,0.09,0.23,0.42
13.787,-0.33,0.36,0.09,0.50
13.797,0.00,0.18,-0.05,0.18
13.807,0.09,-0.21,-0.25,0.34
13.817,0.07,-0.36,-0.11,0.39
13.827,0.08,-0.20,-0.16,0.27
13.837,0.09,-0.14,-0.02,0.17
13.847,0.17,-0.37,0.08,0.41
13.857,0.42,0.10,-0.51,0.67
13.867,0.71,0.37,-0.14,0.81
13.877,0.32,0.04,0.54,0.63
13.887,0.04,0.10,-0.63,0.64
13.897,-0.57,0.04,0.28,0.64
13.907,-0.57,0.59,0.20,0.85
13.918,-0.46,0.58,-0.03,0.74
13.928,-0.01,0.05,-0.09,0.10
13.938,0.44,-0.65,-0.06,0.79
13.948,0.16,-0.57,-0.41,0.72
13.958,0.16,-0.30,-0.02,0.34
13.968,-0.02,0.07,-0.07,0.10
13.978,-0.03,-0.08,-0.11,0.14
13.988,0.33,-0.08,-0.12,0.36
13.998,0.70,0.23,-0.16,0.76
14.009,0.42,0.14,0.21,0.49
14.019,0.23,0.09,-0.34,0.42
14.029,-0.53,0.09,0.13,0.56
14.039,-0.59,0.51,0.17,0.80
14.049,-0.43,0.34,0.16,0.57
14.059,-0.09,0.08,-0.17,0.21
14.069,0.22,-0.38,-0.21,0.48
14.079,0.30,-0.59,-0.06,0.67
14.089,0.04,-0.27,-0.24,0.36
14.099,0.02,-0.01,-0.10,0.10
14.109,0.21,0.05,-0.15,0.26
14.119,0.38,-0.03,0.02,0.38
14.130,0.51,0.05,0.10,0.52
14.139,0.45,0.19,-0.32,0.59
14.150,0.05,0.08,0.06,0.11
14.160,-0.38,0.19,-0.03,0.43
14.170,-0.56,0.16,0.35,0.68
14.180,-0.34,0.17,-0.11,0.40
14.190,-0.04,0.18,0.01,0.19
14.200,0.16,-0.10,-0.14,0.23
14.210,0.14,-0.49,-0.17,0.54
14.220,0.14,-0.36,-0.23,0.45
14.230,0.09,-0.12,-0.01,0.15
14.240,0.08,0.06,-0.14,0.17
14.251,0.42,0.04,-0.09,0.43
14.260,0.56,0.02,0.29,0.63
14.271,0.41,0.16,-0.41,0.61
14.281,-0.02,0.10,-0.09,0.13
14.291,-0.34,0.17,0.10,0.39
14.301,-0.40,-0.04,0.36,0.54
14.311,-0.52,0.26,-0.16,0.60
14.321,-0.09,0.26,-0.12,0.29
14.331,0.19,-0.07,-0.02,0.20
14.341,0.12,-0.30,-0.28,0.43
14.351,0.19,-0.52,-0.10,0.56
14.361,0.12,-0.17,-0.22,0.30
14.371,0.25,0.03,0.03,0.26
14.382,0.51,0.19,-0.01,0.54
14.392,0.42,0.14,0.01,0.45
14.402,0.18,0.07,-0.23,0.30
14.412,-0.16,0.04,-0.09,0.19
14.422,-0.30,0.09,0.08,0.33
14.432,-0.18,0.14,0.30,0.38
14.442,-0.39,0.22,0.03,0.45
14.452,-0.18,0.19,-0.36,0.45
14.462,0.15,-0.15,0.07,0.23
14.472,0.14,-0.27,-0.35,0.46
14.482,0.19,-0.43,-0.03,0.47
14.493,0.04,-0.20,-0.13,0.24
14.503,0.22,0.01,-0.09,0.24
14.513,0.44,0.33,0.14,0.57
14.523,0.47,0.16,-0.09,0.51
14.533,0.25,0.09,-0.19,0.32
14.543,-0.12,-0.11,-0.04,0.17
14.553,-0.37,0.02,0.12,0.39
14.563,-0.35,0.18,0.36,0.53
14.573,-0.33,0.30,-0.19,0.48
14.583,-0.14,0.10,-0.22,0.28
14.593,0.22,-0.30,0.02,0.37
14.603,0.15,-0.20,-0.27,0.37
14.614,0.21,-0.32,-0.06,0.38
14.624,0.11,-0.18,-0.24,0.33
14.634,0.36,0.00,0.09,0.37
14.644,0.45,0.23,0.07,0.51
14.654,0.43,0.26,-0.27,0.57
14.664,0.05,0.08,0.07,0.12
14.674,-0.20,-0.02,-0.20,0.28
14.684,-0.35,-0.06,0.35,0.49
14.694,-0.40,0.44,0.03,0.59
14.704,-0.15,0.26,-0.04,0.30
14.715,0.07,-0.22,-0.24,0.33
14.724,0.06,-0.48,-0.12,0.50
14.735,0.23,-0.17,-0.19,0.35
14.745,0.09,-0.12,-0.01,0.15
14.755,0.07,-0.15,-0.16,0.23
14.765,0.29,-0.04,-0.01,0.29
14.775,0.48,0.29,0.14,0.58
14.785,0.45,0.32,-0.12,0.57
14.795,0.15,0.04,-0.14,0.21
14.805,-0.26,-0.08,-0.04,0.28
14.815,-0.44,-0.06,0.34,0.56
14.825,-0.45,0.46,-0.15,0.66
14.835,-0.18,0.19,0.18,0.32
14.845,0.18,-0.21,-0.30,0.41
14.856,0.22,-0.54,-0.17,0.61
14.866,0.19,-0.38,-0.07,0.43
14.876,-0.04,0.06,-0.26,0.27
14.886,0.13,-0.09,0.02,0.16
