time,ax,ay,az,atotal
0.000,-0.34,0.24,-0.27,0.50
0.010,-0.35,0.28,-0.06,0.45
0.020,0.01,-0.01,0.06,0.06
0.030,0.05,-0.24,-0.30,0.39
0.040,0.11,-0.40,-0.02,0.42
0.051,0.20,-0.35,-0.08,0.42
0.061,0.20,0.01,-0.14,0.24
0.071,0.45,0.23,0.30,0.59
0.081,0.30,0.32,-0.24,0.50
0.091,0.11,-0.06,-0.05,0.13
0.101,-0.23,-0.04,-0.15,0.28
0.111,-0.32,-0.02,0.13,0.35
0.121,-0.28,0.29,0.25,0.47
0.131,-0.46,0.39,0.11,0.62
0.141,-0.10,0.16,-0.37,0.42
0.151,-0.03,-0.26,0.13,0.29
0.161,0.09,-0.28,-0.21,0.36
0.172,0.08,-0.22,-0.09,0.25
0.181,0.17,-0.31,-0.09,0.37
0.192,0.08,-0.04,-0.07,0.12
0.202,0.39,0.28,0.11,0.50
0.212,0.37,0.46,-0.22,0.63
0.222,0.17,-0.02,0.25,0.30
0.232,-0.01,-0.25,-0.34,0.42
0.242,-0.42,-0.16,0.22,0.50
0.252,-0.33,0.18,0.34,0.50
0.262,-0.49,0.62,-0.10,0.80
0.272,-0.22,0.12,0.01,0.25
0.282,-0.01,-0.31,-0.19,0.36
0.293,0.12,-0.42,-0.06,0.44
0.303,0.12,-0.12,-0.19,0.26
0.313,0.12,-0.12,0.01,0.17
0.323,0.17,-0.13,-0.13,0.25
0.333,0.25,0.17,0.19,0.35
0.343,0.52,0.26,-0.11,0.59
0.353,0.24,0.20,-0.11,0.33
0.363,-0.14,-0.16,-0.03,0.21
0.373,-0.43,-0.12,0.02,0.45
0.383,-0.49,0.18,0.39,0.65
0.393,-0.40,0.50,-0.08,0.65
0.404,-0.22,0.31,-0.01,0.38
0.413,0.13,-0.33,-0.15,0.38
0.424,0.08,-0.46,-0.18,0.50
0.434,0.12,-0.32,-0.07,0.35
0.444,0.03,0.03,-0.05,0.07
0.454,0.14,-0.03,-0.11,0.19
0.464,0.39,0.15,0.21,0.47
0.474,0.35,0.21,-0.04,0.41
0.484,0.22,0.21,-0.41,0.51
0.494,0.00,-0.07,0.26,0.27
0.504,-0.37,-0.18,0.01,0.42
0.515,-0.53,0.11,0.18,0.57
0.524,-0.39,0.47,0.09,0.62
0.535,-0.28,0.38,-0.18,0.50
0.545,0.05,-0.33,-0.06,0.33
0.555,0.13,-0.53,-0.29,0.62
0.565,0.15,-0.30,0.04,0.34
0.575,0.07,0.05,-0.07,0.11
0.585,0.20,0.11,-0.23,0.32
0.595,0.43,0.08,0.39,0.58
0.605,0.43,0.21,-0.23,0.53
0.615,0.08,0.10,-0.19,0.23
0.625,-0.10,-0.02,0.06,0.12
0.636,-0.43,-0.16,0.08,0.46
0.645,-0.38,-0.08,0.23,0.45
0.656,-0.44,0.40,0.00,0.60
0.666,-0.19,0.38,-0.10,0.44
0.676,0.08,-0.21,-0.04,0.23
0.686,0.14,-0.57,-0.28,0.65
0.696,0.03,-0.32,-0.05,0.33
0.706,0.15,0.01,-0.04,0.16
0.716,0.07,0.22,-0.05,0.23
0.726,0.47,0.04,0.17,0.50
0.736,0.39,0.20,-0.12,0.45
0.746,0.15,0.20,-0.23,0.34
0.756,-0.15,0.03,0.09,0.18
0.766,-0.35,-0.17,0.14,0.41
0.777,-0.49,-0.02,0.18,0.53
0.787,-0.43,0.33,-0.02,0.54
0.797,-0.23,0.17,-0.12,0.31
0.807,-0.01,-0.15,-0.10,0.19
0.817,0.09,-0.50,-0.02,0.51
0.827,0.10,-0.33,-0.23,0.42
0.837,0.19,-0.12,-0.04,0.23
0.847,0.29,0.30,0.02,0.41
0.857,0.43,0.36,0.09,0.57
0.867,0.38,0.06,-0.10,0.40
0.877,-0.00,0.12,-0.27,0.29
0.888,-0.27,-0.03,0.11,0.29
0.898,-0.37,-0.10,0.19,0.43
0.908,-0.51,0.04,0.29,0.59
0.918,-0.42,0.39,-0.23,0.62
0.928,-0.11,0.14,-0.06,0.19
0.938,0.21,-0.31,-0.04,0.38
0.948,0.08,-0.36,-0.25,0.45
0.958,0.10,-0.33,-0.05,0.34
0.968,-0.00,-0.09,-0.10,0.14
0.978,0.28,0.28,-0.01,0.40
0.988,0.37,0.42,0.25,0.61
0.998,0.35,0.07,-0.26,0.44
1.009,0.09,-0.03,-0.17,0.19
1.019,-0.26,-0.11,0.14,0.31
1.029,-0.33,-0.02,0.16,0.37
1.039,-0.52,0.22,0.32,0.65
1.049,-0.34,0.31,-0.27,0.54
1.059,-0.12,-0.08,-0.02,0.14
1.069,0.13,-0.27,-0.16,0.34
1.079,0.10,-0.25,-0.20,0.34
1.089,0.22,-0.42,0.06,0.48
1.099,0.04,-0.09,-0.23,0.25
1.109,0.38,0.21,0.15,0.46
1.119,0.46,0.43,0.09,0.64
1.130,0.18,0.24,-0.26,0.39
1.140,-0.12,-0.03,-0.04,0.13
1.150,-0.37,-0.10,0.03,0.39
1.160,-0.35,0.06,0.39,0.53
1.170,-0.50,0.33,0.08,0.60
1.180,-0.03,0.03,-0.28,0.28
1.190,-0.02,-0.24,-0.03,0.24
1.200,0.13,-0.34,-0.04,0.36
1.210,-0.01,-0.09,-0.24,0.26
1.220,0.02,-0.22,0.06,0.23
1.230,0.14,-0.12,-0.19,0.26
1.241,0.37,0.21,0.23,0.49
1.251,0.43,0.40,-0.06,0.59
1.261,0.19,0.21,-0.21,0.35
1.271,-0.11,-0.07,0.05,0.14
1.281,-0.38,-0.15,0.19,0.46
1.291,-0.50,0.25,0.21,0.59
1.301,-0.42,0.43,-0.03,0.60
1.311,-0.08,-0.05,-0.06,0.12
1.321,-0.04,-0.27,-0.27,0.38
1.331,0.14,-0.34,-0.08,0.38
1.341,0.12,-0.15,-0.07,0.20
1.351,0.12,-0.18,-0.14,0.26
1.361,0.16,-0.10,-0.10,0.22
1.372,0.35,0.13,0.31,0.49
1.382,0.38,0.41,-0.25,0.61
1.392,0.16,0.31,-0.05,0.36
1.402,-0.19,-0.05,0.02,0.20
1.412,-0.57,-0.13,0.09,0.59
1.422,-0.43,0.17,0.25,0.52
1.432,-0.36,0.53,-0.12,0.66
1.442,-0.04,-0.07,0.01,0.08
1.452,0.14,-0.46,-0.27,0.55
1.462,0.08,-0.40,-0.04,0.41
1.473,0.06,-0.16,-0.06,0.18
1.483,0.02,0.06,-0.16,0.17
1.493,0.21,-0.01,0.13,0.25
1.503,0.37,0.15,0.06,0.40
1.513,0.36,0.17,-0.14,0.42
1.523,0.13,0.33,-0.19,0.40
1.533,-0.18,0.01,0.21,0.28
1.543,-0.55,-0.08,0.23,0.60
1.553,-0.53,0.24,-0.00,0.58
1.563,-0.27,0.45,-0.15,0.55
1.574,0.02,-0.05,0.07,0.09
1.583,0.09,-0.46,-0.35,0.58
1.594,0.08,-0.40,-0.11,0.42
1.604,0.18,-0.19,-0.01,0.26
1.614,0.01,0.00,-0.14,0.14
1.624,0.22,-0.01,-0.05,0.23
1.634,0.41,0.15,0.22,0.49
1.644,0.27,0.19,-0.27,0.43
1.654,0.06,0.25,-0.09,0.27
1.664,-0.37,0.02,0.22,0.43
1.674,-0.33,-0.10,0.08,0.35
1.684,-0.46,0.23,0.18,0.54
1.694,-0.21,0.39,-0.09,0.45
1.705,-0.03,0.13,-0.19,0.23
1.714,0.08,-0.48,-0.02,0.49
1.725,0.08,-0.51,-0.28,0.58
1.735,0.10,-0.27,0.03,0.29
1.745,0.08,0.08,-0.13,0.17
1.755,0.28,0.24,0.06,0.37
1.765,0.49,0.10,0.20,0.54
1.775,0.31,0.11,-0.43,0.54
1.785,-0.09,0.12,0.01,0.16
1.795,-0.31,0.02,0.16,0.35
1.805,-0.38,-0.11,0.26,0.47
1.815,-0.57,0.34,-0.11,0.67
1.826,-0.23,0.41,0.05,0.47
1.835,0.04,0.05,-0.14,0.15
1.846,-0.03,-0.37,-0.14,0.40
1.856,0.23,-0.49,-0.16,0.56
1.866,0.15,-0.27,-0.02,0.31
1.876,0.17,-0.02,-0.12,0.21
1.886,0.30,0.33,0.10,0.45
1.896,0.36,0.21,0.18,0.46
1.906,0.10,0.11,-0.42,0.44
1.916,-0.14,0.03,-0.01,0.14
1.926,-0.23,0.02,0.08,0.24
1.936,-0.38,-0.00,0.28,0.47
1.946,-0.31,0.15,0.03,0.34
1.956,-0.30,0.32,-0.15,0.47
1.967,0.00,0.11,-0.03,0.11
1.977,0.10,-0.28,-0.08,0.30
1.987,0.02,-0.45,-0.20,0.49
1.997,0.06,-0.32,-0.10,0.34
2.007,0.13,0.01,-0.01,0.13
2.017,0.34,0.36,0.05,0.50
2.027,0.46,0.31,0.02,0.55
2.037,0.17,-0.03,-0.24,0.29
2.047,-0.09,-0.10,-0.13,0.18
2.057,-0.29,-0.10,0.10,0.32
2.068,-0.39,0.20,0.21,0.49
2.078,-0.33,0.29,0.15,0.46
2.088,-0.26,0.26,-0.16,0.40
2.098,-0.10,-0.04,-0.12,0.16
2.108,0.04,-0.18,-0.15,0.24
2.118,0.18,-0.42,0.07,0.46
2.128,0.02,-0.37,-0.28,0.47
2.138,0.14,-0.03,-0.10,0.18
2.148,0.47,0.33,0.26,0.63
2.158,0.33,0.40,-0.08,0.52
2.168,0.09,0.00,-0.21,0.23
2.178,-0.05,-0.17,-0.03,0.18
2.189,-0.41,-0.08,0.08,0.43
2.199,-0.32,0.19,0.22,0.43
2.209,-0.34,0.35,0.17,0.52
2.219,-0.16,0.18,-0.17,0.30
2.229,-0.02,-0.11,-0.15,0.18
2.239,0.04,-0.30,0.02,0.30
2.249,0.01,-0.22,-0.21,0.31
2.259,0.10,-0.25,-0.06,0.28
2.269,0.12,-0.16,-0.01,0.20
2.279,0.31,0.21,-0.04,0.38
2.289,0.44,0.40,0.09,0.60
2.299,0.24,0.21,-0.21,0.38
2.310,-0.10,-0.23,0.03,0.25
2.320,-0.34,-0.27,-0.08,0.44
2.330,-0.44,0.04,0.32,0.55
2.340,-0.35,0.57,0.07,0.67
2.350,-0.17,0.30,-0.04,0.35
2.360,-0.08,-0.12,-0.24,0.28
2.370,0.00,-0.33,-0.10,0.34
2.380,0.11,-0.30,-0.07,0.33
2.390,0.04,-0.17,-0.19,0.26
2.400,0.28,-0.23,0.05,0.36
2.410,0.25,0.16,-0.02,0.30
2.421,0.40,0.26,0.08,0.49
2.431,0.30,0.22,-0.21,0.43
2.441,-0.12,0.09,-0.04,0.16
2.451,-0.34,-0.14,-0.00,0.37
2.461,-0.52,-0.02,0.29,0.59
2.471,-0.38,0.30,0.06,0.48
2.481,-0.19,0.37,-0.09,0.43
2.491,0.10,-0.25,-0.04,0.27
2.501,-0.00,-0.36,-0.32,0.48
2.511,0.10,-0.28,0.03,0.30
2.521,0.03,-0.06,-0.11,0.13
2.531,0.01,-0.11,-0.16,0.19
2.542,0.30,0.11,-0.02,0.32
2.552,0.48,0.25,0.22,0.58
2.562,0.31,0.11,-0.38,0.51
2.572,-0.11,0.03,0.03,0.12
2.582,-0.31,0.01,0.02,0.31
2.592,-0.43,-0.00,0.37,0.57
2.602,-0.39,0.21,-0.10,0.46
2.612,-0.31,0.42,-0.04,0.53
2.622,0.07,-0.08,0.06,0.12
2.632,0.05,-0.55,-0.34,0.64
2.642,-0.02,-0.33,-0.02,0.33
2.653,0.20,0.02,-0.11,0.22
2.663,0.08,0.06,-0.08,0.12
2.673,0.33,-0.02,0.05,0.33
2.683,0.45,0.22,0.08,0.51
2.693,0.04,0.24,-0.23,0.33
2.703,0.16,0.04,-0.09,0.18
2.713,-0.40,-0.00,0.11,0.42
2.723,-0.40,-0.24,0.18,0.50
2.733,-0.49,0.25,0.09,0.56
2.743,-0.14,0.42,-0.03,0.45
2.753,-0.01,0.07,-0.18,0.20
2.763,0.11,-0.53,-0.14,0.56
2.774,0.04,-0.48,-0.04,0.48
2.784,0.10,-0.16,-0.22,0.29
2.794,0.10,0.17,-0.08,0.22
2.804,0.34,0.16,0.22,0.44
2.814,0.42,0.08,-0.11,0.45
2.824,0.22,0.16,-0.17,0.32
2.834,-0.07,0.10,-0.13,0.18
2.844,-0.28,-0.11,0.24,0.39
2.854,-0.31,-0.12,0.09,0.35
2.864,-0.92,0.40,0.16,1.02
2.874,0.05,0.20,-0.02,0.21
2.884,-0.10,-0.06,-0.32,0.34
2.894,0.12,-0.34,-0.17,0.40
2.905,0.18,-0.41,0.03,0.45
2.915,0.10,-0.15,-0.25,0.30
2.925,0.26,0.08,-0.05,0.28
2.935,0.35,0.35,0.15,0.52
2.945,0.41,0.09,-0.08,0.42
2.955,0.00,0.08,-0.10,0.13
2.965,-0.15,-0.03,-0.14,0.21
2.975,-0.44,0.00,0.21,0.49
2.985,-0.39,0.06,0.31,0.50
2.995,-0.38,0.32,-0.09,0.51
3.005,-0.15,0.16,-0.08,0.23
3.016,0.00,-0.16,-0.14,0.21
3.026,0.14,-0.38,-0.17,0.44
3.036,0.12,-0.41,-0.07,0.43
3.046,0.01,-0.14,-0.13,0.19
3.056,0.30,0.16,-0.03,0.34
3.066,0.34,0.34,0.30,0.56
3.076,0.31,0.09,-0.30,0.44
3.086,0.10,0.01,-0.12,0.16
3.096,-0.18,-0.06,0.10,0.22
3.106,-0.34,-0.00,-0.05,0.34
3.116,-0.42,0.19,0.31,0.56
3.127,-0.39,0.25,0.09,0.47
3.136,-0.14,0.03,-0.36,0.38
3.146,-0.01,-0.24,0.09,0.26
3.157,0.07,-0.12,-0.25,0.29
3.167,0.13,-0.36,-0.06,0.39
3.177,0.15,-0.25,-0.17,0.34
3.187,0.35,0.02,0.07,0.35
3.197,0.49,0.37,0.09,0.62
3.207,0.20,0.22,-0.13,0.33
3.217,-0.12,0.05,-0.19,0.23
3.227,-0.42,-0.04,0.05,0.42
3.237,-0.34,0.22,0.11,0.42
3.247,-0.37,0.35,0.40,0.65
3.257,-0.35,0.13,-0.21,0.43
3.268,-0.16,-0.15,-0.40,0.46
3.278,0.39,-0.56,0.22,0.72
3.288,0.03,-0.11,-0.32,0.34
3.298,0.04,-0.12,-0.11,0.17
3.308,0.09,-0.19,0.00,0.21
3.318,0.26,0.07,-0.01,0.27
3.328,0.45,0.36,0.07,0.58
3.338,0.31,0.25,-0.14,0.43
3.348,-0.10,-0.05,-0.13,0.17
3.358,-0.39,-0.11,0.03,0.40
3.368,-0.37,0.01,0.32,0.49
3.379,-0.56,0.59,-0.05,0.81
3.389,-0.15,0.20,-0.00,0.25
3.399,0.05,-0.29,-0.29,0.41
3.409,0.02,-0.47,-0.04,0.48
3.419,0.08,-0.20,-0.13,0.26
3.429,-0.01,-0.05,-0.15,0.16
3.439,0.27,-0.14,-0.14,0.33
3.449,0.30,0.10,0.19,0.37
3.459,0.38,0.28,-0.07,0.48
3.469,0.22,0.32,-0.14,0.41
3.479,-0.13,0.03,-0.01,0.13
3.489,-0.44,-0.11,0.11,0.47
3.499,-0.50,0.12,0.24,0.57
3.510,-0.39,0.51,-0.18,0.67
3.520,-0.17,0.23,0.14,0.32
3.530,0.20,-0.46,-0.28,0.58
3.540,0.01,-0.49,-0.20,0.53
3.550,0.10,-0.22,-0.07,0.25
3.560,-0.00,0.02,0.01,0.02
3.570,0.12,-0.03,-0.14,0.19
3.580,0.45,0.09,0.12,0.47
3.590,0.41,0.23,0.06,0.48
3.600,0.13,0.29,-0.29,0.43
3.611,-0.18,0.03,0.05,0.19
3.621,-0.42,-0.02,0.25,0.49
3.631,-0.49,0.16,0.23,0.56
3.641,-0.37,0.35,-0.23,0.56
3.651,-0.12,0.23,-0.06,0.27
3.661,0.15,-0.33,0.02,0.36
3.671,0.06,-0.54,-0.31,0.63
3.681,0.13,-0.34,-0.13,0.39
3.691,0.08,-0.01,0.12,0.15
3.701,0.16,0.14,-0.32,0.38
3.711,0.34,0.06,0.48,0.59
3.721,0.34,0.25,-0.39,0.58
3.731,0.09,0.19,-0.07,0.22
3.742,-0.13,0.05,0.09,0.16
3.752,-0.45,-0.19,0.19,0.53
3.762,-0.45,0.19,-0.01,0.49
3.772,-0.27,0.38,0.13,0.48
3.782,-0.06,0.17,-0.14,0.23
3.792,-0.01,-0.29,-0.19,0.35
3.802,0.17,-0.57,-0.15,0.61
3.812,0.06,-0.35,-0.13,0.37
3.822,0.00,0.05,-0.15,0.16
3.832,0.25,0.21,0.07,0.33
3.843,0.40,0.11,0.17,0.45
3.853,0.33,0.15,-0.33,0.49
3.863,0.08,0.14,-0.07,0.17
3.873,-0.15,0.05,0.02,0.16
3.883,-0.46,-0.13,0.29,0.56
3.893,-0.48,0.10,-0.00,0.49
3.903,-0.33,0.40,-0.08,0.53
3.913,-0.01,0.16,0.01,0.16
3.923,-0.02,-0.20,-0.17,0.26
3.933,0.11,-0.56,-0.16,0.60
3.943,0.06,-0.33,-0.13,0.36
3.953,0.28,-0.10,-0.13,0.32
3.963,0.23,0.28,0.05,0.37
3.973,0.33,0.32,0.11,0.47
3.984,0.25,0.17,-0.23,0.38
3.994,-0.03,0.02,-0.15,0.16
4.004,-0.24,-0.09,0.06,0.26
4.014,-0.39,-0.05,0.19,0.44
4.024,-0.34,0.06,0.25,0.42
4.034,-0.29,0.42,-0.22,0.56
4.044,-0.06,0.14,0.04,0.15
4.054,0.02,-0.15,-0.21,0.25
4.064,-0.03,-0.44,-0.08,0.45
4.074,0.06,-0.34,-0.15,0.38
4.085,0.17,-0.10,-0.07,0.21
4.095,0.32,0.34,0.06,0.47
4.105,0.39,0.39,0.02,0.56
4.115,0.31,-0.01,-0.10,0.32
4.125,-0.10,-0.05,-0.23,0.25
4.135,-0.25,-0.12,-0.01,0.28
4.145,-0.34,-0.01,0.32,0.47
4.155,-0.40,0.22,0.12,0.48
4.165,-0.27,0.26,-0.10,0.39
4.175,-0.12,0.09,-0.12,0.19
4.185,-0.00,-0.14,-0.10,0.17
4.195,0.05,-0.26,-0.07,0.28
4.206,0.21,-0.46,-0.05,0.51
4.216,0.06,-0.17,-0.26,0.32
4.226,0.33,0.21,0.17,0.42
4.236,0.37,0.40,0.10,0.55
4.246,0.24,0.21,-0.29,0.44
4.256,-0.06,-0.20,0.06,0.21
4.266,-0.34,-0.12,-0.15,0.39
4.276,-0.36,0.03,0.24,0.43
4.286,-0.29,0.29,0.27,0.49
4.296,-0.25,0.29,-0.14,0.40
4.306,-0.03,0.02,-0.20,0.21
4.316,0.03,-0.22,-0.01,0.22
4.327,0.00,-0.24,-0.23,0.33
4.337,0.02,-0.21,-0.13,0.25
4.347,0.12,-0.21,0.04,0.25
4.357,0.22,0.09,-0.13,0.27
4.367,0.44,0.37,0.18,0.60
4.377,0.34,0.29,-0.20,0.49
4.387,-0.07,-0.14,-0.11,0.20
4.397,-0.24,-0.27,-0.02,0.36
4.407,-0.38,-0.08,0.11,0.40
4.417,-0.32,0.36,0.26,0.55
4.427,-0.39,0.51,-0.00,0.65
4.437,0.11,-0.19,-0.19,0.29
4.448,-0.12,-0.37,-0.17,0.42
4.458,0.05,-0.25,-0.07,0.27
4.468,0.09,-0.05,-0.22,0.24
4.478,0.08,-0.14,-0.03,0.17
4.488,0.35,0.01,0.05,0.35
4.498,0.37,0.18,0.10,0.43
4.508,0.31,0.35,-0.28,0.54
4.518,-0.04,0.16,-0.03,0.17
4.528,-0.24,-0.19,0.01,0.30
4.538,-0.52,-0.11,0.19,0.56
4.548,-0.31,0.21,0.16,0.40
4.559,-0.29,0.53,-0.14,0.63
4.569,-0.02,-0.16,0.12,0.20
4.579,-0.00,-0.43,-0.43,0.61
4.589,0.04,-0.37,0.02,0.37
4.599,0.10,-0.05,-0.17,0.21
4.609,0.06,0.02,-0.05,0.08
4.619,0.27,-0.04,-0.00,0.27
4.629,0.36,0.27,0.09,0.46
4.639,0.31,0.18,-0.06,0.36
4.649,-0.08,0.19,-0.28,0.35
4.659,-0.23,-0.13,0.13,0.30
4.669,-0.36,-0.12,0.16,0.41
4.680,-0.36,0.08,0.25,0.45
4.690,-0.26,0.48,-0.22,0.58
4.700,-0.13,0.14,0.06,0.20
4.710,0.10,-0.44,-0.15,0.47
4.720,-0.12,-0.42,-0.27,0.51
4.730,0.16,-0.15,-0.05,0.23
4.740,0.11,0.10,0.00,0.15
4.750,0.27,0.04,-0.07,0.28
4.760,0.36,0.13,0.19,0.42
4.770,0.34,0.23,-0.26,0.48
4.780,-0.07,0.16,0.02,0.18
4.790,-0.22,-0.13,-0.07,0.26
4.800,-0.41,-0.19,0.17,0.48
4.811,-0.40,0.30,0.24,0.55
4.821,-0.32,0.35,-0.04,0.48
4.831,-0.03,0.05,-0.27,0.28
4.841,0.10,-0.46,0.06,0.47
4.851,0.01,-0.42,-0.31,0.52
4.861,0.05,-0.22,-0.06,0.23
4.871,0.14,0.07,-0.07,0.17
4.881,0.28,0.23,-0.02,0.36
4.891,0.45,-0.02,0.19,0.49
4.901,0.28,0.17,-0.45,0.56
4.912,-0.12,0.14,0.03,0.19
4.922,-0.18,-0.03,0.03,0.18
4.932,-0.41,-0.16,0.22,0.49
4.942,-0.52,0.19,0.08,0.56
4.952,-0.30,0.40,-0.13,0.52
4.962,0.02,0.06,-0.09,0.11
4.972,0.02,-0.27,-0.13,0.30
4.982,0.17,-0.55,-0.12,0.59
4.992,-0.00,-0.27,-0.14,0.31
5.002,0.21,0.06,-0.09,0.23
5.012,0.35,0.33,0.17,0.51
5.022,0.40,0.19,-0.03,0.45
5.033,0.14,0.05,-0.27,0.30
5.043,-0.11,-0.01,0.03,0.11
5.053,-0.36,0.07,-0.05,0.37
5.063,-0.41,0.08,0.37,0.56
5.073,-0.32,0.20,0.10,0.39
5.083,-0.32,0.36,-0.48,0.68
5.093,-0.07,-0.11,0.53,0.55
5.103,0.17,-0.26,-0.65,0.72
5.113,0.09,-0.64,0.11,0.65
5.123,0.13,-0.22,-0.29,0.39
5.133,0.16,0.04,0.11,0.20
5.143,0.26,0.37,0.05,0.45
5.154,0.36,0.26,-0.03,0.44
5.164,0.12,0.05,-0.18,0.22
5.174,0.03,-0.06,-0.37,0.38
5.184,-0.43,0.06,0.61,0.75
5.194,-0.46,0.28,0.19,0.57
5.204,-0.44,0.12,-0.18,0.49
5.214,-0.16,0.06,-0.30,0.34
5.224,0.13,-0.16,0.22,0.30
5.234,0.06,-0.27,-0.37,0.47
5.244,0.01,-0.34,-0.14,0.37
5.254,0.15,-0.26,0.03,0.30
5.264,0.21,-0.02,-0.15,0.26
5.274,0.47,0.27,0.14,0.56
5.285,0.39,0.36,-0.07,0.54
5.295,-0.06,0.19,-0.20,0.28
5.305,-0.19,-0.08,-0.04,0.22
5.315,-0.46,-0.05,0.21,0.51
5.325,-0.40,0.37,0.16,0.57
5.335,-0.35,0.31,0.04,0.47
5.345,-0.04,-0.09,-0.31,0.33
5.355,0.15,-0.44,-0.05,0.47
5.365,0.06,-0.28,-0.09,0.30
5.376,0.00,-0.07,-0.34,0.35
5.386,0.00,-0.28,0.28,0.39
5.396,0.19,-0.02,-0.19,0.27
5.406,0.56,0.19,0.12,0.60
5.416,0.33,0.41,-0.22,0.58
5.426,0.04,-0.00,-0.07,0.08
5.436,-0.32,-0.08,-0.16,0.37
5.446,-0.37,-0.12,0.44,0.59
5.456,-0.55,0.52,-0.04,0.76
5.466,-0.32,0.53,-0.17,0.65
5.476,0.07,-0.11,-0.01,0.13
5.486,0.01,-0.49,-0.14,0.51
5.496,0.04,-0.43,-0.17,0.47
5.506,0.10,-0.11,-0.08,0.17
5.517,0.19,-0.17,-0.06,0.26
5.527,0.29,0.10,-0.03,0.31
5.537,0.36,0.22,0.21,0.47
5.547,0.26,0.41,-0.33,0.59
5.557,-0.09,0.18,-0.03,0.21
5.567,-0.32,-0.15,0.11,0.37
5.577,-0.44,-0.14,0.19,0.50
5.587,-0.54,0.45,-0.01,0.70
5.597,-0.19,0.51,-0.11,0.56
5.607,0.20,-0.22,-0.01,0.30
5.618,-0.07,-0.52,-0.37,0.65
5.628,0.21,-0.42,-0.10,0.48
5.638,0.05,-0.05,0.01,0.07
5.648,-0.00,-0.05,-0.21,0.21
5.658,0.29,0.07,0.06,0.31
5.668,0.43,0.26,0.10,0.51
5.678,0.26,0.33,-0.28,0.51
5.688,-0.11,0.22,0.06,0.25
5.698,-0.19,-0.06,0.18,0.27
5.708,-0.18,0.33,0.16,0.41
5.718,-0.06,0.97,0.16,0.99
5.728,0.93,1.49,-0.14,1.77
5.739,0.35,0.54,0.67,0.92
5.749,-0.20,-0.61,-0.74,0.98
5.759,-0.22,-0.71,-0.21,0.78
5.769,-0.95,0.95,0.67,1.50
5.779,-1.33,1.30,0.27,1.88
5.789,-0.51,-0.34,0.06,0.61
5.799,0.19,-1.09,-0.78,1.35
5.809,-0.02,-0.66,-0.03,0.67
5.819,0.48,-0.28,0.25,0.60
5.829,0.39,-0.53,-0.03,0.66
5.839,-0.06,-0.51,-0.58,0.78
5.849,-0.15,-0.15,-0.04,0.21
5.860,-0.09,0.08,0.05,0.13
5.870,-0.07,-0.07,-0.32,0.33
5.880,0.13,-0.44,-0.14,0.48
5.890,-0.17,-0.28,-0.26,0.42
5.900,0.10,-0.31,-0.08,0.34
5.910,0.08,-0.22,-0.13,0.27
5.920,0.02,-0.09,-0.36,0.37
5.930,0.14,-0.05,0.02,0.15
5.940,0.14,0.01,-0.19,0.24
5.950,0.00,-0.01,-0.24,0.24
5.960,-0.02,-0.14,-0.07,0.16
5.970,0.01,-0.29,-0.11,0.31
5.981,0.07,-0.47,-0.13,0.49
5.990,0.01,-0.42,-0.22,0.47
6.001,-0.28,-0.29,-0.20,0.45
6.011,-0.50,0.03,0.03,0.50
6.021,-0.40,0.05,-0.13,0.42
6.031,0.30,0.40,-0.50,0.71
6.041,1.01,1.23,-0.16,1.60
6.051,1.23,1.16,-0.02,1.69
6.061,0.63,0.14,0.25,0.69
6.071,-0.15,0.32,0.32,0.48
6.081,-0.49,0.37,0.97,1.15
6.091,-1.67,-0.15,-0.57,1.77
6.102,-0.61,-0.19,-0.17,0.67
6.112,-0.55,0.63,0.61,1.04
6.122,0.03,-0.35,0.38,0.52
6.132,0.38,-0.71,-1.25,1.49
6.142,0.51,-0.72,0.55,1.04
6.152,0.38,-0.39,-0.04,0.54
6.162,-0.09,0.19,-0.61,0.65
6.172,0.15,0.52,0.41,0.68
6.182,0.18,0.67,0.06,0.70
6.192,0.24,0.02,-0.34,0.42
6.202,0.25,-0.28,-0.03,0.38
6.213,-0.37,-0.24,-0.07,0.45
6.222,-0.20,-0.21,-0.02,0.29
6.233,-0.40,0.24,0.44,0.64
6.243,-0.44,0.54,-0.04,0.70
6.253,-0.18,0.39,-0.34,0.55
6.263,0.24,-0.18,0.25,0.39
6.273,0.06,-0.31,-0.42,0.53
6.283,0.07,-0.43,-0.07,0.44
6.293,0.14,-0.39,0.04,0.42
6.303,0.06,0.13,-0.27,0.30
6.313,0.30,0.36,0.32,0.56
6.323,0.52,0.32,-0.21,0.64
6.333,0.12,0.03,-0.19,0.23
6.344,-0.12,-0.09,-0.08,0.17
6.353,-0.47,-0.03,0.18,0.51
6.364,-0.50,0.22,0.11,0.56
6.374,-0.51,0.31,0.12,0.61
6.384,-0.07,0.02,-0.31,0.32
6.394,0.18,-0.32,-0.01,0.37
6.404,0.25,-0.32,-0.17,0.44
6.414,0.10,-0.10,-0.14,0.20
6.424,0.14,-0.19,-0.01,0.24
6.434,0.05,0.08,-0.09,0.13
6.444,0.23,0.31,0.18,0.43
6.454,0.24,0.34,-0.27,0.50
6.464,-0.03,-0.05,-0.09,0.10
6.475,-0.13,-0.18,-0.07,0.23
6.485,-0.32,-0.21,0.14,0.41
6.495,-0.15,0.18,0.21,0.31
6.505,-0.33,0.54,0.02,0.64
6.515,-0.17,0.08,-0.04,0.20
6.525,-0.13,-0.26,-0.32,0.43
6.535,-0.00,-0.29,-0.02,0.29
6.545,0.24,-0.10,-0.18,0.31
6.555,0.13,-0.16,-0.06,0.22
6.566,0.28,-0.12,-0.11,0.32
6.576,0.34,0.21,0.22,0.46
6.586,0.31,0.30,-0.17,0.46
6.596,0.06,0.18,-0.14,0.24
6.606,-0.39,0.04,-0.02,0.39
6.616,-0.49,-0.07,0.04,0.50
6.626,-0.30,-0.06,0.45,0.54
6.636,-0.32,0.48,-0.25,0.63
6.646,0.01,0.20,-0.03,0.20
6.656,0.18,-0.37,-0.14,0.44
6.666,0.09,-0.44,-0.22,0.50
6.676,0.03,-0.21,-0.07,0.23
6.687,-0.05,0.08,-0.11,0.15
6.697,0.13,-0.09,-0.07,0.17
6.707,0.28,0.23,0.14,0.39
6.717,0.36,0.27,-0.15,0.48
6.727,0.24,0.16,-0.12,0.31
6.737,-0.26,-0.01,-0.04,0.26
6.747,-0.35,-0.16,0.06,0.39
6.757,-0.43,-0.05,0.35,0.55
6.767,-0.36,0.42,-0.13,0.57
6.777,-0.25,0.36,-0.12,0.45
6.787,0.14,-0.30,-0.04,0.34
6.797,-0.04,-0.48,-0.27,0.55
6.808,0.21,-0.33,-0.15,0.42
6.818,0.16,0.12,-0.06,0.21
6.828,0.30,0.16,-0.18,0.38
6.838,0.30,-0.01,0.27,0.41
6.848,0.33,0.20,-0.28,0.48
6.858,0.06,0.13,-0.12,0.19
6.868,-0.28,0.04,0.05,0.29
6.878,-0.49,-0.06,0.01,0.49
6.888,-0.33,-0.01,0.28,0.44
6.898,-0.32,0.40,-0.07,0.52
6.908,-0.06,0.27,-0.13,0.31
6.919,0.16,-0.23,-0.17,0.32
6.929,0.12,-0.55,-0.13,0.57
6.939,-0.05,-0.35,-0.11,0.37
6.949,-0.02,-0.07,-0.08,0.11
6.959,0.14,0.21,-0.10,0.27
6.969,0.38,0.18,0.17,0.45
6.979,0.46,0.17,-0.13,0.51
6.989,0.15,0.11,-0.18,0.26
6.999,-0.28,0.09,-0.08,0.30
7.009,-0.53,-0.11,0.37,0.65
7.019,-0.43,-0.04,0.11,0.45
7.029,-0.53,0.37,-0.17,0.66
7.039,-0.03,0.14,0.02,0.14
7.050,0.15,-0.12,-0.20,0.28
7.060,0.21,-0.48,-0.09,0.53
7.070,0.10,-0.30,-0.19,0.37
7.080,0.05,-0.10,-0.01,0.12
7.090,0.40,0.25,-0.14,0.49
7.100,0.27,0.18,0.33,0.46
7.110,0.26,0.11,-0.41,0.50
7.120,-0.09,0.10,-0.04,0.14
7.130,-0.19,-0.02,-0.00,0.20
7.140,-0.51,0.17,0.17,0.57
7.151,-0.35,0.11,0.33,0.49
7.161,-0.28,0.27,-0.30,0.49
7.171,-0.10,0.04,-0.08,0.13
7.181,0.21,-0.25,-0.12,0.35
7.191,0.08,-0.48,-0.14,0.50
7.201,0.05,-0.37,-0.21,0.43
7.211,0.07,-0.07,-0.09,0.14
7.221,0.29,0.29,0.07,0.42
7.231,0.45,0.36,0.08,0.58
7.241,0.20,0.15,-0.25,0.35
7.251,-0.10,0.05,-0.16,0.20
7.261,-0.36,0.00,0.13,0.38
7.271,-0.42,0.18,0.18,0.49
7.281,-0.51,0.13,0.23,0.58
7.292,-0.29,0.17,-0.33,0.47
7.302,0.10,-0.25,0.05,0.27
7.312,0.12,-0.21,-0.16,0.29
7.322,0.16,-0.25,-0.21,0.37
7.332,0.23,-0.34,-0.01,0.41
7.342,0.05,-0.08,-0.14,0.17
7.352,0.27,0.19,0.04,0.33
7.362,0.43,0.39,0.09,0.59
7.372,0.12,0.18,-0.18,0.28
7.382,-0.18,-0.00,-0.19,0.26
7.393,-0.47,-0.07,0.14,0.49
7.403,-0.40,0.17,0.37,0.57
7.413,-0.39,0.46,-0.13,0.61
7.423,-0.09,0.09,-0.13,0.18
7.433,0.13,-0.38,-0.12,0.42
7.443,0.15,-0.37,-0.23,0.46
7.453,0.11,-0.15,-0.11,0.21
7.463,0.02,-0.18,-0.09,0.20
7.473,0.12,-0.15,-0.08,0.21
7.483,0.35,0.20,0.11,0.42
7.493,0.44,0.41,-0.11,0.61
7.503,0.19,0.18,-0.15,0.30
7.514,-0.28,-0.06,-0.05,0.29
7.524,-0.45,-0.06,0.15,0.48
7.534,-0.46,0.29,0.29,0.62
7.544,-0.28,0.43,-0.12,0.52
7.554,-0.19,0.10,-0.18,0.28
7.564,0.08,-0.28,-0.04,0.30
7.574,0.20,-0.48,-0.15,0.54
7.584,0.07,-0.18,-0.21,0.28
7.594,0.15,-0.20,-0.06,0.25
7.604,0.27,-0.02,-0.02,0.27
7.614,0.59,0.58,0.14,0.84
7.624,0.95,1.28,0.06,1.60
7.635,-0.17,0.66,0.74,1.01
7.644,-0.64,0.11,0.45,0.79
7.655,-0.52,0.03,0.72,0.89
7.665,-0.09,-0.24,-0.01,0.26
7.675,0.09,-0.44,-0.54,0.70
7.685,-0.16,1.02,-0.73,1.27
7.695,-0.19,1.32,1.05,1.69
7.705,-0.47,0.66,-0.74,1.09
7.715,0.02,0.16,-1.17,1.18
7.725,0.09,0.06,0.28,0.30
7.735,0.45,0.27,0.14,0.54
7.745,0.14,0.28,-0.35,0.47
7.755,-0.15,0.17,-0.36,0.43
7.766,-0.15,-0.01,-0.14,0.21
7.776,-0.30,-0.20,0.02,0.36
7.786,-0.44,-0.42,0.37,0.71
7.796,-0.43,-0.82,-0.33,0.98
7.806,-0.48,-1.00,-0.59,1.25
7.816,0.41,-1.53,0.02,1.59
7.826,-0.28,-1.50,0.67,1.67
7.836,0.09,-0.39,-1.42,1.48
7.846,0.75,-0.09,-0.31,0.82
7.856,0.35,1.20,-2.42,2.72
7.866,0.40,2.69,-4.16,4.97
7.877,-0.20,1.92,-0.86,2.11
7.887,2.22,-4.61,10.94,12.08
7.897,-1.95,3.96,-2.37,5.01
7.907,1.30,-2.10,0.62,2.54
7.917,-2.53,-0.86,-1.84,3.25
7.927,1.25,-1.61,2.26,3.04
7.937,-0.92,-0.47,-0.56,1.18
7.947,-0.26,0.33,-1.09,1.17
7.957,0.57,-0.13,1.29,1.41
7.967,0.17,-0.14,-1.01,1.04
7.977,-0.02,-0.30,-0.14,0.33
7.987,0.32,0.04,0.10,0.34
7.998,-0.03,0.40,0.07,0.41
8.008,0.44,0.45,-0.10,0.63
8.018,0.43,0.31,-0.07,0.54
8.028,-0.15,0.21,-0.13,0.29
8.038,-0.42,-0.21,0.02,0.47
8.048,-0.43,-0.32,0.39,0.66
8.058,-0.44,0.02,-0.33,0.55
8.068,-0.19,0.41,0.26,0.52
8.079,0.17,0.11,-0.34,0.40
8.088,0.09,-0.13,-0.16,0.23
8.098,0.23,-0.40,-0.09,0.47
8.109,-0.12,-0.17,0.10,0.24
8.119,0.18,-0.10,-0.52,0.56
8.129,0.36,0.24,0.34,0.55
8.139,0.44,0.12,0.07,0.46
8.149,0.26,0.13,-0.42,0.51
8.159,-0.30,0.22,0.15,0.40
8.169,-0.34,0.23,-0.15,0.44
8.179,-0.21,-0.01,0.22,0.30
8.189,-0.29,0.19,0.19,0.40
8.199,-0.33,0.18,-0.41,0.56
8.209,0.05,-0.40,0.29,0.50
8.219,0.10,-0.22,-0.43,0.49
8.229,0.10,-0.47,-0.00,0.49
8.240,0.25,-0.20,-0.20,0.38
8.250,0.17,0.11,-0.07,0.21
8.260,0.21,0.52,0.14,0.57
8.270,0.33,0.38,-0.06,0.51
8.280,0.07,0.20,-0.21,0.30
8.290,-0.17,-0.09,-0.08,0.21
8.300,-0.33,-0.08,0.02,0.34
8.310,-0.26,-0.10,0.32,0.43
8.320,-0.32,0.10,0.04,0.33
8.330,-0.18,0.18,-0.34,0.43
8.340,0.13,-0.00,0.13,0.18
8.351,0.04,-0.12,-0.31,0.33
8.361,0.04,-0.23,-0.06,0.24
8.371,0.07,-0.25,-0.16,0.31
8.381,0.14,0.04,-0.09,0.17
8.391,0.34,0.28,0.18,0.47
8.401,0.43,0.39,-0.11,0.59
8.411,0.20,-0.04,-0.18,0.27
8.421,-0.09,-0.19,-0.13,0.25
8.431,-0.44,-0.19,0.04,0.48
8.441,-0.33,0.22,0.29,0.49
8.451,-0.37,0.47,0.10,0.61
8.461,-0.10,0.19,-0.21,0.30
8.471,0.04,-0.09,-0.13,0.16
8.482,0.23,-0.37,-0.11,0.45
8.491,0.02,-0.25,-0.09,0.26
8.502,0.11,-0.26,-0.24,0.37
8.512,0.10,-0.05,0.05,0.12
8.522,0.29,0.30,0.06,0.42
8.532,0.35,0.43,-0.02,0.55
8.542,0.16,0.22,-0.26,0.37
8.552,-0.15,-0.10,0.05,0.19
8.562,-0.36,-0.29,-0.07,0.46
8.572,-0.33,-0.08,0.37,0.51
8.582,-0.30,0.44,-0.13,0.55
8.593,-0.07,0.18,0.09,0.21
8.603,-0.00,-0.31,-0.30,0.43
8.613,0.02,-0.28,-0.12,0.30
8.623,0.09,-0.04,-0.05,0.11
8.633,0.06,0.01,-0.12,0.13
8.643,0.19,-0.10,-0.19,0.29
8.653,0.29,0.20,0.14,0.38
8.663,0.44,0.27,-0.05,0.52
8.673,0.25,0.20,-0.16,0.35
8.683,-0.17,-0.11,-0.17,0.26
8.693,-0.39,-0.28,0.04,0.48
8.704,-0.36,-0.08,0.30,0.48
8.714,-0.35,0.50,-0.06,0.61
8.724,-0.20,0.53,-0.07,0.57
8.734,0.15,-0.17,-0.07,0.24
8.744,0.05,-0.40,-0.28,0.49
8.754,0.06,-0.39,-0.10,0.40
8.764,0.15,-0.04,-0.13,0.20
8.774,0.09,-0.01,-0.05,0.11
8.784,0.33,0.10,0.02,0.35
8.794,0.38,0.20,0.08,0.44
8.804,0.25,0.20,-0.39,0.51
8.815,-0.12,0.03,0.10,0.16
8.824,-0.41,-0.01,0.02,0.41
8.835,-0.50,0.01,0.13,0.52
8.845,-0.26,0.24,0.16,0.39
8.855,-0.20,0.36,-0.26,0.49
8.865,0.07,-0.15,-0.02,0.17
8.875,0.08,-0.46,-0.28,0.54
8.885,0.11,-0.26,-0.09,0.30
8.895,0.12,0.04,-0.15,0.20
8.905,0.17,0.10,-0.08,0.21
8.915,0.34,0.08,0.09,0.36
8.925,0.37,0.17,-0.15,0.43
8.935,0.18,0.10,-0.06,0.21
8.946,-0.09,0.12,-0.14,0.20
8.956,-0.34,-0.18,0.13,0.41
8.966,-0.40,-0.15,0.13,0.45
8.976,-0.47,0.29,0.01,0.56
8.986,-0.09,0.48,-0.19,0.52
8.996,-0.14,0.19,0.14,0.27
9.006,0.28,-0.49,-0.28,0.63
9.016,0.00,-0.42,-0.28,0.50
9.026,0.13,-0.13,-0.01,0.19
9.036,0.18,0.07,-0.06,0.20
9.046,0.36,-0.02,-0.03,0.37
9.056,0.43,0.16,0.05,0.46
9.067,0.31,-0.01,-0.20,0.37
9.077,-0.20,0.06,-0.16,0.26
9.087,-0.51,0.28,0.18,0.61
9.097,-0.51,0.27,0.32,0.66
9.107,-0.47,0.15,-0.15,0.51
9.117,-0.09,0.08,-0.11,0.16
9.127,0.15,-0.11,-0.13,0.22
9.137,0.17,-0.31,-0.14,0.38
9.147,0.20,-0.42,-0.16,0.49
9.157,0.03,-0.13,-0.13,0.19
9.168,0.24,0.09,-0.09,0.28
9.177,0.37,0.24,0.17,0.47
9.188,0.40,0.13,-0.16,0.45
9.198,0.06,-0.04,-0.18,0.19
9.208,-0.22,0.03,-0.15,0.27
9.218,-0.49,0.21,0.30,0.61
9.228,-0.50,0.34,0.16,0.62
9.238,-0.26,0.22,-0.06,0.34
9.248,0.00,-0.04,-0.02,0.05
9.258,0.09,-0.17,-0.24,0.31
9.268,0.11,-0.25,-0.11,0.30
9.279,0.11,-0.39,-0.06,0.41
9.289,-0.05,-0.14,-0.20,0.25
9.299,0.34,0.05,-0.03,0.35
9.308,0.44,0.30,0.24,0.59
9.319,0.36,0.06,-0.26,0.45
9.329,-0.04,0.04,-0.17,0.18
9.339,-0.26,-0.04,0.10,0.28
9.349,-0.46,0.31,0.12,0.57
9.359,-0.44,0.34,0.29,0.62
9.369,-0.29,0.28,-0.14,0.43
9.379,-0.11,-0.16,-0.21,0.29
9.389,0.15,-0.30,-0.11,0.35
9.399,0.12,-0.21,-0.12,0.27
9.409,0.16,-0.39,-0.14,0.44
9.420,0.15,-0.15,-0.22,0.31
9.430,0.37,0.08,0.13,0.40
9.440,0.39,0.35,0.00,0.53
9.450,0.17,0.12,-0.15,0.25
9.460,-0.04,0.01,-0.23,0.23
9.470,-0.49,0.07,0.16,0.52
9.480,-0.46,0.29,0.21,0.58
9.490,-0.37,0.43,0.12,0.58
9.500,-0.14,0.15,-0.17,0.27
9.510,0.09,-0.31,-0.16,0.35
9.520,0.22,-0.44,-0.09,0.50
9.530,0.02,-0.06,-0.31,0.31
9.540,0.04,-0.17,0.10,0.21
9.551,0.12,-0.19,-0.25,0.34
9.561,0.39,0.03,0.13,0.41
9.571,0.41,0.32,-0.09,0.53
9.581,0.29,0.18,-0.15,0.37
9.591,-0.02,-0.10,-0.05,0.11
9.601,-0.51,0.02,0.03,0.51
9.611,-0.50,0.23,0.31,0.63
9.621,-0.45,0.61,-0.05,0.76
9.631,-0.12,0.18,-0.11,0.25
9.641,-0.03,-0.26,-0.22,0.35
9.652,0.22,-0.48,-0.08,0.53
9.661,0.13,-0.28,-0.17,0.35
9.672,0.08,-0.13,-0.21,0.26
9.682,0.27,-0.19,-0.06,0.34
9.692,0.36,0.13,0.10,0.39
9.702,0.36,0.31,-0.05,0.48
9.712,0.19,0.20,-0.21,0.35
9.722,-0.30,0.10,0.01,0.31
9.732,-0.60,0.16,0.03,0.62
9.742,-0.42,0.20,0.31,0.56
9.752,-0.29,0.42,-0.09,0.52
9.762,0.02,0.04,-0.19,0.20
9.773,0.21,-0.41,-0.09,0.47
9.783,0.07,-0.46,-0.18,0.50
9.793,-0.04,-0.20,-0.13,0.24
9.803,0.03,0.09,-0.18,0.20
9.813,0.23,-0.05,0.10,0.25
9.823,0.35,0.08,-0.05,0.37
9.833,0.37,0.13,-0.10,0.40
9.843,0.23,0.31,-0.16,0.41
9.853,-0.27,0.07,0.12,0.30
9.863,-0.50,-0.05,0.05,0.50
9.873,-0.49,0.21,0.16,0.56
9.884,-0.35,0.53,-0.18,0.66
9.894,-0.03,0.13,-0.01,0.14
9.904,0.16,-0.47,-0.21,0.54
9.914,0.05,-0.47,-0.33,0.58
9.924,0.46,-0.32,0.13,0.58
9.934,-0.16,0.07,-0.11,0.20
9.944,0.24,0.05,-0.27,0.36
9.954,0.39,0.23,0.31,0.55
9.964,0.25,0.26,-0.27,0.45
9.974,0.05,0.20,-0.23,0.31
9.984,-0.30,0.01,0.17,0.34
9.994,-0.38,-0.24,0.14,0.47
10.004,-0.40,0.18,0.03,0.44
10.015,-0.24,0.45,-0.04,0.51
10.024,0.04,0.24,-0.16,0.29
10.035,0.10,-0.37,-0.06,0.39
10.045,0.11,-0.58,-0.29,0.66
10.055,-0.02,-0.30,-0.10,0.32
10.065,0.06,0.05,-0.06,0.10
10.075,0.29,0.28,-0.12,0.42
10.085,0.44,0.17,0.25,0.53
10.095,0.33,0.25,-0.40,0.58
10.105,0.04,0.12,-0.02,0.13
10.115,-0.27,-0.01,0.04,0.27
10.125,-0.41,-0.17,0.24,0.50
10.136,-0.50,0.18,-0.01,0.53
10.146,-0.31,0.40,-0.03,0.51
10.156,0.03,0.07,-0.06,0.10
10.166,0.05,-0.22,-0.32,0.39
10.176,0.21,-0.48,0.02,0.52
10.186,0.15,-0.24,-0.18,0.33
10.196,0.09,-0.00,-0.14,0.17
10.206,0.36,0.29,0.02,0.46
10.216,0.32,0.28,0.18,0.46
10.226,0.15,0.12,-0.50,0.53
10.237,-0.11,0.01,0.08,0.13
10.246,-0.20,-0.05,-0.04,0.21
10.257,-0.39,-0.09,0.21,0.46
10.267,-0.26,0.11,0.07,0.29
10.277,-0.30,0.40,-0.13,0.52
10.287,0.06,0.12,-0.03,0.13
10.297,0.03,-0.18,-0.20,0.27
10.307,0.03,-0.47,-0.18,0.50
10.317,0.08,-0.28,-0.15,0.33
10.327,0.16,0.04,-0.07,0.18
10.337,0.30,0.43,0.02,0.52
10.347,0.41,0.37,0.03,0.55
10.357,0.22,0.04,-0.31,0.38
10.368,-0.15,-0.09,-0.01,0.17
10.378,-0.18,-0.24,-0.23,0.38
10.388,-0.36,-0.01,0.39,0.53
10.398,-0.33,0.23,0.16,0.43
10.408,-0.34,0.30,-0.31,0.55
10.418,-0.03,0.06,0.06,0.09
10.428,0.12,-0.14,-0.13,0.23
10.438,0.06,-0.21,-0.30,0.37
10.448,0.14,-0.38,0.06,0.41
10.458,0.11,-0.10,-0.26,0.30
10.468,0.36,0.29,0.13,0.48
10.479,0.35,0.47,0.03,0.59
10.489,0.18,0.15,-0.27,0.36
10.499,-0.08,-0.19,-0.12,0.24
10.509,-0.30,-0.17,-0.04,0.34
10.519,-0.37,0.10,0.22,0.44
10.529,-0.41,0.35,0.14,0.56
10.539,-0.13,0.16,-0.15,0.26
10.549,-0.02,-0.10,-0.16,0.19
10.559,0.12,-0.24,-0.14,0.30
10.569,0.06,-0.14,-0.13,0.20
10.579,-0.01,-0.14,-0.12,0.18
10.589,0.11,-0.14,-0.12,0.21
10.599,0.28,0.06,0.12,0.31
10.610,0.43,0.39,-0.12,0.60
10.620,0.26,0.31,-0.06,0.41
10.630,-0.02,-0.13,-0.20,0.24
10.640,-0.32,-0.24,-0.05,0.40
10.650,-0.42,-0.13,0.33,0.55
10.660,-0.32,0.41,0.05,0.52
10.670,-0.27,0.42,-0.06,0.50
10.680,-0.01,-0.15,-0.14,0.20
10.690,-0.02,-0.36,-0.24,0.43
10.700,0.08,-0.25,-0.13,0.29
10.710,0.12,0.00,-0.10,0.16
10.721,0.12,-0.10,-0.15,0.22
10.731,0.29,0.06,-0.02,0.30
10.741,0.40,0.24,0.09,0.48
10.751,0.28,0.31,-0.27,0.50
10.761,-0.11,0.15,-0.03,0.19
10.771,-0.31,-0.19,-0.12,0.38
10.781,-0.35,-0.13,0.21,0.43
10.791,-0.31,0.23,0.21,0.44
10.801,-0.30,0.46,-0.18,0.57
10.811,0.02,-0.10,-0.04,0.11
10.821,-0.01,-0.33,-0.30,0.45
10.831,0.21,-0.32,0.00,0.38
10.842,-0.08,-0.12,-0.17,0.22
10.852,0.06,0.03,-0.33,0.34
10.862,0.40,-0.00,0.27,0.49
10.872,0.31,0.20,-0.03,0.38
10.882,0.28,0.18,-0.37,0.50
10.892,0.06,0.07,0.05,0.11
10.902,-0.35,-0.05,-0.03,0.36
10.912,-0.41,-0.06,0.10,0.42
10.922,-0.45,0.22,0.29,0.57
10.932,-0.23,0.55,-0.29,0.66
10.942,0.02,0.07,-0.01,0.07
10.952,0.07,-0.42,-0.10,0.44
10.963,0.00,-0.45,-0.27,0.53
10.973,0.11,-0.16,-0.03,0.20
10.983,0.22,0.05,-0.13,0.26
10.993,0.31,0.00,0.06,0.32
11.003,0.41,0.17,-0.05,0.45
11.013,0.24,0.21,-0.08,0.33
11.023,-0.05,0.09,-0.14,0.17
11.033,-0.46,0.20,-0.05,0.51
11.043,-0.38,-0.04,0.34,0.51
11.053,-0.39,0.13,-0.00,0.41
11.063,-0.22,0.30,-0.15,0.40
11.073,0.07,0.06,-0.02,0.09
11.084,0.18,-0.47,-0.12,0.52
11.094,0.03,-0.38,-0.39,0.55
11.104,-0.01,-0.19,0.15,0.25
11.114,0.12,0.08,-0.24,0.28
11.124,0.30,0.10,0.02,0.32
11.134,0.51,0.01,0.18,0.54
11.144,0.29,0.25,-0.49,0.61
11.154,-0.12,0.11,0.16,0.23
11.164,-0.30,0.07,-0.13,0.34
11.175,-0.52,0.05,0.29,0.60
11.184,-0.44,0.22,0.10,0.50
11.194,-0.21,0.24,-0.16,0.36
11.205,-0.03,0.01,-0.14,0.14
11.215,0.14,-0.30,-0.17,0.37
11.225,0.15,-0.47,-0.11,0.50
11.235,0.11,-0.21,-0.21,0.32
11.245,0.19,-0.02,-0.09,0.21
11.255,0.37,0.26,0.11,0.46
11.265,0.37,0.17,-0.05,0.41
11.275,0.15,0.07,-0.30,0.35
11.285,-0.19,0.08,-0.04,0.21
11.295,-0.38,0.06,0.08,0.39
11.306,-0.45,0.25,0.22,0.56
11.316,-0.35,0.29,0.13,0.47
11.326,-0.17,0.20,-0.30,0.40
11.336,0.12,-0.20,-0.01,0.24
11.346,0.16,-0.36,-0.19,0.44
11.356,0.01,-0.39,-0.19,0.43
11.366,0.06,-0.16,-0.10,0.20
11.376,0.27,0.06,-0.05,0.28
11.386,0.35,0.29,0.16,0.48
11.396,0.39,0.18,-0.19,0.48
11.406,0.16,0.05,-0.16,0.24
11.416,-0.14,0.00,0.05,0.15
11.427,-0.48,0.07,0.00,0.49
11.437,-0.40,0.26,0.28,0.56
11.447,-0.37,0.29,0.01,0.47
11.457,-0.25,0.12,-0.35,0.45
11.467,0.12,-0.30,0.05,0.33
11.477,0.10,-0.23,-0.25,0.36
11.487,0.15,-0.37,-0.09,0.41
11.497,0.18,-0.26,-0.21,0.38
11.507,0.28,-0.02,-0.01,0.28
11.517,0.33,0.30,0.14,0.47
11.527,0.32,0.37,-0.25,0.55
11.537,-0.06,0.09,0.01,0.10
11.548,-0.15,-0.09,-0.22,0.28
11.558,-0.47,0.11,0.25,0.54
11.568,-0.34,0.39,0.32,0.61
11.578,-0.33,0.30,-0.20,0.49
11.588,-0.07,-0.01,-0.26,0.27
11.598,0.26,-0.43,0.12,0.52
11.608,0.02,-0.25,-0.38,0.45
11.618,0.01,-0.28,-0.05,0.28
11.628,0.17,-0.23,-0.11,0.31
11.638,0.24,0.03,-0.06,0.25
11.648,0.47,0.32,0.13,0.58
11.658,0.32,0.32,-0.17,0.48
11.669,-0.05,0.06,-0.19,0.21
11.678,-0.28,-0.11,-0.01,0.30
11.689,-0.50,-0.01,0.31,0.59
11.699,-0.51,0.53,-0.03,0.74
11.709,-0.23,0.35,-0.16,0.45
11.719,0.11,-0.19,-0.07,0.23
11.729,0.06,-0.41,-0.21,0.46
11.739,0.15,-0.35,-0.20,0.43
11.749,0.10,-0.17,-0.02,0.19
11.759,0.13,-0.19,-0.18,0.29
11.769,0.28,0.07,0.05,0.29
11.779,0.41,0.31,-0.02,0.51
11.790,0.22,0.33,-0.03,0.40
11.800,-0.22,0.36,-0.05,0.42
11.810,-0.26,-0.14,-0.29,0.41
11.820,-0.50,-0.18,0.65,0.84
11.830,-0.46,0.45,-0.18,0.66
11.840,-0.14,0.37,-0.23,0.46
11.850,0.25,-0.32,0.08,0.41
11.860,0.04,-0.41,-0.41,0.59
11.870,0.12,-0.32,0.00,0.34
11.880,0.01,-0.09,-0.12,0.15
11.890,0.03,-0.02,-0.22,0.23
11.900,0.40,0.15,0.26,0.50
11.910,0.35,0.29,-0.11,0.47
11.921,0.21,0.28,-0.30,0.46
11.931,-0.11,0.17,0.10,0.23
11.941,-0.44,-0.18,0.10,0.48
11.951,-0.43,0.02,0.14,0.46
11.961,-0.39,0.48,-0.06,0.62
11.971,-0.13,0.39,-0.17,0.44
11.981,0.15,-0.30,0.00,0.33
11.991,0.11,-0.54,-0.37,0.66
12.001,0.15,-0.32,-0.10,0.37
12.011,0.11,-0.02,0.03,0.12
12.021,0.10,0.11,-0.27,0.30
12.032,0.33,0.10,0.25,0.43
12.042,0.35,0.24,-0.18,0.45
12.052,0.11,0.20,-0.22,0.32
12.062,-0.15,0.17,-0.01,0.23
12.072,-0.37,-0.17,0.21,0.46
12.082,-0.47,0.03,0.13,0.49
12.092,-0.31,0.37,-0.09,0.49
12.102,-0.13,0.28,-0.12,0.34
12.112,0.10,-0.14,-0.19,0.25
12.122,0.21,-0.55,-0.06,0.59
12.132,0.05,-0.34,-0.30,0.46
12.143,-0.04,0.01,0.02,0.05
12.153,0.22,0.22,-0.13,0.34
12.163,0.40,0.07,0.31,0.51
12.173,0.34,0.22,-0.34,0.52
12.183,0.06,0.18,-0.07,0.21
12.193,-0.13,0.05,-0.02,0.14
12.203,-0.39,-0.16,0.28,0.50
12.213,-0.43,0.02,-0.01,0.43
12.223,-0.43,0.35,-0.06,0.56
12.233,-0.05,0.26,-0.09,0.28
12.243,0.05,-0.08,-0.14,0.17
12.254,0.20,-0.52,-0.23,0.60
12.263,0.07,-0.28,-0.13,0.32
12.274,0.15,-0.05,-0.02,0.15
12.284,0.25,0.20,-0.22,0.38
12.294,0.33,0.21,0.42,0.57
12.304,0.20,0.17,-0.47,0.54
12.314,-0.06,0.12,-0.07,0.15
12.324,-0.07,-0.06,0.03,0.10
12.334,-0.39,-0.01,0.02,0.39
12.344,-0.30,-0.01,0.25,0.39
12.354,-0.32,0.30,-0.11,0.46
12.364,-0.06,0.18,-0.17,0.25
12.375,0.10,-0.05,-0.08,0.14
12.385,0.01,-0.32,-0.18,0.37
12.395,0.07,-0.37,-0.19,0.42
12.405,0.11,-0.10,-0.06,0.16
12.415,0.26,0.29,0.08,0.40
12.425,0.34,0.35,0.02,0.49
12.435,0.30,0.07,-0.18,0.36
12.445,-0.01,0.05,-0.19,0.20
12.455,-0.11,-0.15,-0.04,0.19
12.465,-0.30,-0.08,0.15,0.34
12.475,-0.50,0.22,0.21,0.59
12.485,-0.29,0.28,-0.18,0.44
12.496,-0.14,0.13,-0.09,0.21
12.506,0.06,-0.02,-0.09,0.11
12.516,0.14,-0.22,-0.16,0.31
12.526,0.14,-0.35,-0.16,0.41
12.536,0.06,-0.22,-0.10,0.25
12.546,0.29,0.16,-0.04,0.34
12.556,0.36,0.38,0.21,0.56
12.566,0.23,0.26,-0.29,0.45
12.576,0.00,-0.09,-0.09,0.13
12.586,-0.25,-0.13,-0.05,0.28
12.596,-0.33,-0.07,0.08,0.34
12.607,-0.32,0.31,0.30,0.53
12.616,-0.30,0.34,-0.10,0.46
12.627,-0.03,0.01,-0.32,0.32
12.637,0.08,-0.26,0.05,0.27
12.647,0.03,-0.19,-0.33,0.39
12.657,0.10,-0.10,-0.28,0.31
12.667,0.13,-0.18,0.18,0.29
12.677,0.19,0.07,-0.17,0.26
12.687,0.36,0.32,0.15,0.51
12.697,0.32,0.36,-0.21,0.53
12.707,-0.03,-0.10,0.03,0.11
12.717,-0.19,-0.19,-0.41,0.49
12.727,-0.37,-0.21,0.37,0.57
12.738,-0.32,0.32,0.24,0.51
12.748,-0.43,0.53,-0.09,0.68
12.758,-0.06,-0.00,-0.11,0.13
12.768,-0.01,-0.41,-0.15,0.43
12.778,0.14,-0.26,-0.24,0.38
12.788,0.12,0.01,-0.00,0.12
12.798,0.10,-0.19,-0.16,0.27
12.808,0.19,-0.03,-0.14,0.24
12.818,0.36,0.17,0.25,0.47
12.828,0.33,0.34,-0.31,0.57
12.839,0.02,0.27,-0.02,0.27
12.849,-0.22,-0.19,0.02,0.29
12.859,-0.48,-0.18,0.01,0.51
12.869,-0.36,0.20,0.32,0.53
12.879,-0.27,0.63,-0.13,0.70
12.889,-0.03,0.10,-0.06,0.12
12.899,0.05,-0.38,-0.26,0.46
12.909,0.01,-0.47,-0.09,0.47
12.919,0.07,-0.21,-0.14,0.26
12.929,0.09,0.06,-0.21,0.23
12.939,0.28,-0.03,0.15,0.32
12.949,0.30,0.24,-0.06,0.39
12.959,0.37,0.23,-0.11,0.45
12.970,0.14,0.21,-0.10,0.28
12.980,-0.34,-0.10,-0.05,0.36
12.990,-0.36,-0.14,0.09,0.40
13.000,-0.44,0.17,0.34,0.58
13.010,-0.38,0.53,-0.21,0.68
13.020,-0.07,0.30,-0.10,0.33
13.030,0.12,-0.42,-0.00,0.43
13.040,0.01,-0.55,-0.49,0.74
13.050,0.14,-0.26,0.14,0.33
13.060,0.10,0.12,-0.25,0.29
13.070,0.33,0.07,-0.00,0.33
13.080,0.35,0.01,0.25,0.43
13.091,0.20,0.29,-0.43,0.55
13.101,0.09,0.20,0.08,0.23
13.111,-0.21,0.09,-0.09,0.24
13.121,-0.26,-0.31,0.03,0.40
13.131,-0.50,0.09,0.29,0.59
13.141,-0.44,0.53,-0.15,0.70
13.151,-0.01,0.31,-0.10,0.33
13.161,0.16,-0.33,-0.07,0.37
13.171,0.11,-0.55,-0.36,0.66
13.181,0.06,-0.40,0.00,0.41
13.191,0.07,0.01,-0.19,0.20
13.202,0.25,0.18,-0.02,0.30
13.212,0.39,0.03,0.23,0.46
13.222,0.35,0.23,-0.46,0.62
13.232,0.09,0.30,0.05,0.32
13.242,-0.21,0.12,-0.02,0.24
13.252,-0.47,-0.26,0.16,0.56
13.262,-0.52,0.12,0.11,0.55
13.272,-0.43,0.40,-0.11,0.60
13.282,0.03,0.21,-0.16,0.26
13.292,0.05,-0.21,-0.10,0.24
13.302,0.19,-0.58,-0.20,0.64
13.312,0.08,-0.34,-0.16,0.39
13.323,0.16,-0.08,-0.09,0.20
13.333,0.26,0.32,-0.02,0.41
13.343,0.35,0.25,0.14,0.45
13.353,0.30,0.13,-0.32,0.46
13.363,-0.07,0.12,-0.06,0.15
13.373,-0.31,0.03,-0.00,0.32
13.383,-0.38,-0.04,0.26,0.46
13.393,-0.45,0.19,0.18,0.52
13.403,-0.31,0.46,-0.32,0.64
13.413,-0.07,0.00,0.04,0.08
13.423,0.23,-0.31,-0.30,0.49
13.433,0.04,-0.46,-0.07,0.47
13.444,0.15,-0.28,-0.25,0.40
13.454,0.09,-0.08,-0.01,0.12
13.464,0.26,0.29,-0.04,0.40
13.474,0.42,0.31,0.05,0.52
13.484,0.29,0.06,-0.23,0.38
13.494,-0.07,0.07,-0.13,0.16
13.504,-0.23,-0.08,0.02,0.24
13.514,-0.44,0.11,0.35,0.58
13.524,-0.62,0.38,-0.02,0.73
13.534,-0.18,0.28,-0.24,0.41
13.544,-0.06,-0.14,0.02,0.16
13.554,0.14,-0.31,-0.32,0.47
13.565,0.16,-0.37,0.01,0.40
13.575,0.18,-0.30,-0.14,0.37
13.585,0.12,-0.07,-0.16,0.21
13.595,0.34,0.23,0.16,0.44
13.605,0.51,0.41,-0.14,0.67
13.615,0.06,0.13,-0.06,0.15
13.625,-0.14,-0.05,-0.26,0.30
13.635,-0.31,-0.20,0.11,0.39
13.645,-0.43,0.33,0.35,0.65
13.655,-0.54,0.60,-0.12,0.82
13.666,0.01,0.04,-0.18,0.18
13.675,0.02,-0.38,-0.02,0.38
13.686,0.13,-0.33,-0.36,0.51
13.696,0.18,-0.17,-0.03,0.25
13.706,0.08,-0.24,-0.10,0.27
13.716,0.04,-0.03,-0.23,0.23
13.726,0.36,0.30,0.27,0.54
13.736,0.50,0.41,-0.23,0.69
13.746,0.18,0.06,-0.14,0.23
13.756,-0.27,-0.08,-0.03,0.28
13.766,-0.47,-0.13,0.21,0.53
13.776,-0.56,0.47,0.16,0.74
13.786,-0.38,0.50,-0.22,0.66
13.797,0.04,-0.07,-0.12,0.14
13.807,0.16,-0.45,-0.04,0.48
13.817,0.02,-0.34,-0.28,0.44
13.827,0.12,-0.07,-0.15,0.20
13.837,0.13,-0.20,0.06,0.24
13.847,0.16,-0.01,-0.18,0.25
13.857,0.36,0.18,0.20,0.45
13.867,0.37,0.44,-0.31,0.65
13.877,0.00,0.29,0.04,0.29
13.887,-0.27,-0.15,-0.02,0.31
13.897,-0.50,-0.17,0.23,0.58
13.908,-0.46,0.42,0.03,0.62
13.917,-0.25,0.52,-0.12,0.59
13.928,0.03,-0.15,-0.16,0.22
13.937,0.06,-0.47,-0.35,0.58
13.948,0.15,-0.33,-0.05,0.36
13.958,0.04,-0.10,-0.11,0.15
13.968,0.05,-0.02,-0.20,0.21
13.978,0.25,0.05,0.07,0.26
13.988,0.36,0.18,0.13,0.42
13.998,0.33,0.28,-0.42,0.60
14.008,0.06,0.31,0.05,0.32
14.018,-0.29,-0.06,0.07,0.30
14.029,-0.60,-0.06,0.19,0.63
14.038,-0.55,0.31,-0.02,0.64
14.049,-0.23,0.34,-0.15,0.43
14.059,0.15,-0.13,-0.02,0.20
14.069,0.10,-0.41,-0.28,0.51
14.079,0.11,-0.38,-0.17,0.43
14.089,0.17,-0.08,-0.07,0.20
14.099,0.05,0.13,-0.18,0.23
14.109,0.22,0.01,0.13,0.26
14.119,0.45,0.18,-0.12,0.50
14.129,0.23,0.23,-0.19,0.38
14.139,-0.09,0.30,-0.11,0.33
14.149,-0.35,-0.16,0.15,0.41
14.160,-0.40,-0.13,0.11,0.44
14.170,-0.42,0.33,0.02,0.53
14.180,-0.12,0.34,-0.15,0.39
14.190,0.02,0.02,-0.11,0.11
14.200,0.14,-0.45,-0.16,0.50
14.210,0.04,-0.43,-0.24,0.49
14.220,0.04,-0.18,-0.10,0.21
14.230,0.10,0.20,-0.16,0.27
14.240,0.31,0.20,0.22,0.43
14.250,0.42,0.15,-0.16,0.48
14.260,0.25,0.18,-0.25,0.39
14.271,-0.03,0.13,-0.11,0.17
14.281,-0.33,-0.11,0.11,0.37
14.291,-0.42,-0.17,0.20,0.49
14.301,-0.64,0.37,-0.19,0.77
14.311,-0.14,0.36,0.03,0.38
14.321,-0.00,0.03,-0.22,0.23
14.331,0.20,-0.47,-0.20,0.55
14.341,0.11,-0.37,-0.20,0.44
14.351,0.17,-0.13,-0.09,0.23
14.361,0.15,0.13,-0.14,0.25
14.371,0.28,0.41,0.02,0.50
14.381,0.36,0.13,0.15,0.41
14.392,0.10,-0.02,-0.53,0.54
14.402,-0.23,-0.04,0.04,0.24
14.412,-0.34,-0.06,0.15,0.38
14.422,-0.37,0.04,0.07,0.38
14.432,-0.26,0.31,-0.01,0.41
14.442,-0.10,0.29,-0.10,0.33
14.452,-0.02,0.03,-0.22,0.22
14.462,0.07,-0.36,-0.15,0.39
14.472,0.02,-0.39,-0.08,0.40
14.482,-0.02,-0.09,-0.27,0.28
14.492,0.29,0.13,0.10,0.33
14.502,0.37,0.42,0.04,0.56
14.513,0.41,0.18,-0.12,0.46
14.523,0.10,-0.03,-0.22,0.24
14.533,-0.18,-0.12,-0.13,0.26
14.543,-0.35,-0.09,-0.01,0.36
14.553,-0.41,0.21,0.47,0.66
14.563,-0.37,0.35,-0.04,0.51
14.573,-0.12,0.10,-0.36,0.40
14.583,0.01,-0.10,-0.02,0.10
14.593,0.05,-0.18,-0.15,0.24
14.603,0.14,-0.38,-0.23,0.47
14.613,0.15,-0.26,-0.07,0.31
14.623,0.18,0.09,-0.22,0.30
14.634,0.38,0.35,0.32,0.60
14.644,0.35,0.36,-0.31,0.59
14.654,0.08,-0.08,-0.09,0.15
14.664,-0.27,-0.14,-0.20,0.37
14.674,-0.35,-0.10,0.09,0.37
14.684,-0.32,0.31,0.24,0.50
14.694,-0.34,0.36,0.07,0.50
14.704,-0.09,0.15,-0.32,0.36
14.714,0.02,-0.20,0.01,0.20
14.724,0.09,-0.25,-0.25,0.37
14.734,-0.03,-0.16,-0.13,0.21
14.745,0.13,-0.26,-0.10,0.30
14.755,0.16,-0.05,-0.09,0.20
14.765,0.37,0.27,-0.03,0.46
14.775,0.37,0.42,0.04,0.56
14.785,0.30,0.14,-0.31,0.45
14.795,-0.28,-0.22,0.08,0.37
14.805,-0.37,-0.20,-0.11,0.44
14.815,-0.42,0.23,0.46,0.66
14.825,-0.39,0.59,-0.10,0.71
14.835,-0.09,0.12,-0.08,0.17
14.845,-0.05,-0.24,-0.23,0.33
14.856,0.13,-0.31,-0.17,0.38
14.866,0.06,-0.15,0.08,0.18
14.876,0.04,-0.22,-0.30,0.37
14.886,0.22,-0.12,-0.13,0.28
14.896,0.41,0.26,0.14,0.51
14.906,0.21,0.29,0.30,0.47
14.916,0.38,0.34,-1.09,1.21
14.926,-0.38,-0.19,0.84,0.94
14.936,-0.26,-0.08,-0.73,0.78
14.946,-0.54,-0.01,0.61,0.82
14.956,-0.33,0.64,-0.10,0.73
14.967,-0.14,0.29,0.08,0.33
14.976,0.07,-0.30,-0.27,0.41
14.986,0.21,-0.53,-0.36,0.67
14.997,0.01,-0.29,0.10,0.31
15.007,-0.04,-0.03,-0.24,0.24
15.017,0.19,-0.08,-0.10,0.23
15.027,0.42,0.18,0.09,0.47
15.037,0.32,0.32,0.04,0.45
15.047,0.15,0.19,-0.09,0.26
15.057,-0.12,-0.01,-0.39,0.40
15.067,-0.49,-0.03,-0.17,0.51
15.078,-0.36,-0.03,0.92,0.99
15.087,-0.35,0.48,-0.50,0.77
15.098,-0.31,0.40,0.01,0.50
15.108,0.19,-0.19,0.06,0.28
15.118,0.02,-0.54,-0.40,0.68
15.128,0.10,-0.36,-0.16,0.41
15.138,0.20,-0.06,0.02,0.21
15.148,0.11,0.04,-0.23,0.26
15.158,0.26,0.07,0.15,0.31
15.168,0.41,0.28,-0.20,0.54
15.178,0.17,0.24,-0.14,0.33
15.188,-0.09,0.10,-0.04,0.14
15.198,-0.41,-0.16,0.01,0.44
15.209,-0.48,0.04,0.23,0.54
15.219,-0.41,0.34,0.03,0.53
15.229,-0.21,0.36,-0.24,0.48
15.239,0.14,-0.14,-0.08,0.21
15.249,0.22,-0.49,-0.14,0.56
15.259,0.05,-0.38,-0.25,0.46
15.269,0.02,-0.09,-0.00,0.09
15.279,0.13,0.15,-0.14,0.25
15.289,0.32,0.05,0.17,0.36
15.299,0.44,0.12,-0.19,0.50
15.309,0.21,0.20,-0.12,0.31
15.319,-0.05,0.14,-0.17,0.23
15.330,-0.49,-0.03,0.22,0.54
15.340,-0.43,-0.03,0.31,0.53
15.350,-0.63,0.37,-0.23,0.77
15.360,-0.13,0.26,-0.08,0.30
15.370,0.13,-0.05,-0.06,0.15
15.380,0.21,-0.49,-0.30,0.61
15.390,0.09,-0.36,-0.11,0.39
15.400,0.14,-0.13,-0.10,0.21
15.410,0.15,0.08,-0.13,0.21
15.420,0.14,-0.05,0.03,0.15
15.430,0.21,-0.24,-0.19,0.36
15.441,0.09,-0.05,-0.23,0.25
15.450,0.05,-0.23,-0.01,0.23
15.461,-0.11,-0.15,-0.27,0.32
15.471,-0.13,-0.34,-0.21,0.42
15.481,-0.18,-0.08,-0.16,0.26
15.491,-0.32,0.14,-0.17,0.39
15.501,-0.43,-0.14,-0.10,0.46
15.511,0.05,-0.46,-0.41,0.62
15.521,0.26,-0.06,-0.33,0.42
15.531,0.27,0.24,0.10,0.37
15.541,0.08,0.29,-0.09,0.31
15.551,0.26,0.86,1.41,1.67
15.561,0.05,1.10,0.00,1.11
15.572,-0.23,0.64,-0.85,1.09
15.582,0.27,0.42,0.75,0.90
15.592,-0.26,0.88,0.01,0.92
15.602,-0.75,-0.55,0.19,0.95
15.612,-0.12,-1.11,-0.32,1.16
15.622,-0.29,-0.81,-0.34,0.93
15.632,0.48,-0.26,0.09,0.55
15.642,0.12,0.23,-0.11,0.29
15.652,0.14,-0.09,-0.29,0.34
15.662,0.18,-0.00,0.09,0.20
15.672,0.48,0.39,0.01,0.62
15.682,0.25,0.38,-0.03,0.45
15.693,-0.02,-0.13,-0.20,0.24
15.703,-0.21,-0.29,-0.10,0.37
15.713,-0.38,-0.20,0.23,0.48
15.723,-0.40,0.43,0.16,0.61
15.733,-0.29,0.80,-0.16,0.86
15.743,-0.25,0.25,-0.01,0.35
15.753,0.07,-0.43,-0.26,0.51
15.763,0.10,-0.49,-0.18,0.54
15.773,0.14,-0.21,-0.08,0.26
15.783,0.01,-0.14,-0.10,0.18
15.793,0.17,0.04,-0.10,0.20
15.804,0.32,0.30,0.24,0.50
15.814,0.52,0.35,-0.34,0.71
15.824,0.35,-0.11,-0.01,0.37
15.834,-0.03,-0.43,-0.04,0.44
15.844,-0.75,-0.07,0.06,0.76
15.854,-0.54,0.50,0.32,0.80
15.864,-0.48,0.81,-0.18,0.96
15.874,-0.18,0.14,-0.13,0.26
15.884,0.29,-0.47,-0.13,0.57
15.894,0.10,-0.55,-0.17,0.58
15.904,0.04,-0.16,-0.19,0.25
15.915,0.14,-0.11,-0.06,0.18
15.925,0.18,0.06,-0.00,0.19
15.935,0.35,0.25,0.00,0.42
15.945,0.40,0.29,-0.09,0.50
15.955,0.16,0.20,-0.19,0.32
15.965,-0.09,-0.34,0.12,0.37
15.975,-0.72,-0.06,0.13,0.73
15.985,-0.52,0.41,0.05,0.66
15.995,-0.39,0.65,-0.16,0.78
16.005,0.07,0.02,-0.11,0.13
16.015,0.20,-0.52,-0.21,0.60
16.025,0.08,-0.55,-0.14,0.58
16.036,-0.02,-0.13,-0.14,0.19
16.046,-0.05,0.22,-0.08,0.23
16.056,0.26,0.12,0.12,0.31
16.066,0.38,0.22,-0.09,0.45
16.076,0.47,0.15,-0.23,0.55
16.086,0.08,0.18,0.05,0.20
16.096,-0.19,-0.36,0.01,0.41
16.106,-0.69,0.07,0.11,0.71
16.116,-0.61,0.57,0.07,0.83
16.126,-0.31,0.50,-0.18,0.62
16.136,0.22,-0.13,-0.05,0.26
16.146,0.07,-0.55,-0.25,0.61
16.157,0.17,-0.57,-0.19,0.63
16.167,-0.05,-0.12,0.05,0.14
16.177,0.02,0.33,-0.27,0.43
16.187,0.23,0.24,0.26,0.42
16.197,0.47,0.08,-0.11,0.49
16.207,0.39,0.07,-0.28,0.49
16.217,0.03,0.14,0.01,0.14
16.227,-0.32,-0.22,0.13,0.41
16.237,-0.58,-0.05,0.14,0.60
16.247,-0.56,0.50,-0.16,0.77
16.257,-0.09,0.40,-0.00,0.42
16.268,0.23,-0.09,-0.20,0.32
16.278,0.07,-0.57,-0.17,0.60
16.288,0.02,-0.46,-0.33,0.56
16.298,0.00,-0.18,0.09,0.20
16.308,-0.02,0.28,-0.24,0.37
16.318,0.35,0.36,0.18,0.54
16.328,0.50,0.14,-0.08,0.53
16.338,0.23,0.09,-0.27,0.37
16.348,-0.12,-0.12,0.01,0.17
16.358,-0.33,-0.20,0.11,0.40
16.368,-0.48,0.07,0.17,0.52
16.378,-0.52,0.49,-0.13,0.72
16.388,-0.11,0.34,-0.02,0.36
16.399,0.02,-0.12,-0.20,0.24
16.409,0.08,-0.39,-0.14,0.42
16.419,0.20,-0.41,-0.09,0.46
16.429,0.10,-0.15,-0.10,0.20
16.439,0.20,0.16,-0.19,0.32
16.449,0.28,0.43,0.34,0.61
16.459,0.36,0.14,-0.21,0.44
16.469,0.11,0.09,-0.39,0.42
16.479,-0.08,-0.09,0.15,0.19
16.489,-0.22,-0.14,0.06,0.27
16.499,-0.40,0.01,0.22,0.46
16.509,-0.44,0.38,-0.09,0.59
16.519,-0.18,0.31,-0.15,0.39
16.530,0.10,-0.14,-0.03,0.17
16.540,0.04,-0.27,-0.37,0.46
16.550,0.11,-0.41,0.06,0.43
16.560,-0.00,-0.13,-0.21,0.25
16.570,0.18,0.18,-0.01,0.25
16.580,0.34,0.53,0.16,0.66
16.590,0.29,0.30,-0.09,0.43
16.600,0.28,-0.19,-0.48,0.59
16.610,-0.21,-0.24,0.08,0.33
16.620,-0.15,-0.24,0.17,0.33
16.631,-0.47,0.26,0.10,0.55
16.641,-0.58,0.53,-0.07,0.79
16.651,-0.08,0.26,-0.11,0.29
16.661,-0.08,-0.16,-0.16,0.24
16.671,0.17,-0.37,-0.25,0.48
16.681,0.08,-0.32,-0.07,0.33
16.691,0.10,-0.29,-0.16,0.35
16.701,0.24,0.06,-0.08,0.26
16.711,0.23,0.35,0.28,0.51
16.721,0.33,0.45,-0.35,0.66
16.731,0.09,0.16,-0.09,0.20
16.741,-0.09,-0.18,-0.02,0.20
16.752,-0.32,-0.26,0.05,0.41
16.761,-0.40,0.22,0.16,0.48
16.772,-0.41,0.54,-0.01,0.68
16.782,-0.06,0.02,-0.01,0.07
16.792,0.00,-0.31,-0.37,0.48
16.802,0.24,-0.41,0.02,0.47
16.812,-0.02,-0.10,-0.19,0.21
16.822,-0.01,-0.11,-0.09,0.15
16.832,0.27,-0.04,0.04,0.27
16.842,0.31,0.27,-0.01,0.41
16.852,0.37,0.41,-0.10,0.56
16.862,0.13,0.27,-0.12,0.33
16.873,-0.19,-0.23,0.00,0.30
16.883,-0.43,-0.34,0.01,0.54
16.893,-0.35,0.04,0.30,0.46
16.903,-0.48,0.72,-0.20,0.88
16.913,-0.07,0.29,0.12,0.32
16.923,0.01,-0.39,-0.28,0.48
16.933,0.05,-0.46,-0.31,0.55
16.943,0.18,-0.19,0.13,0.29
16.953,0.02,-0.05,-0.25,0.25
16.963,0.21,-0.11,-0.05,0.24
16.973,0.32,0.17,0.16,0.40
16.984,0.39,0.32,-0.29,0.58
16.994,0.13,0.34,0.06,0.37
17.004,-0.16,-0.07,-0.20,0.26
17.014,-0.44,-0.24,0.14,0.52
17.024,-0.47,0.09,0.30,0.56
17.034,-0.37,0.58,-0.22,0.72
17.044,-0.08,0.30,-0.01,0.31
17.054,0.14,-0.43,-0.10,0.46
17.064,0.04,-0.52,-0.35,0.63
17.074,0.07,-0.30,0.00,0.30
17.084,-0.02,0.06,-0.10,0.12
17.094,0.14,0.13,-0.15,0.24
17.104,0.39,0.15,0.24,0.48
17.115,0.42,0.22,-0.30,0.56
17.125,0.09,0.23,-0.13,0.28
17.135,-0.16,0.05,-0.05,0.18
17.145,-0.34,-0.34,0.16,0.51
17.155,-0.44,0.10,0.10,0.46
17.165,-0.50,0.52,-0.06,0.72
17.175,0.01,0.28,-0.19,0.34
17.185,-0.03,-0.20,0.02,0.20
17.195,0.12,-0.56,-0.18,0.61
17.205,-0.05,-0.30,-0.33,0.44
17.216,0.17,-0.05,-0.06,0.18
17.226,0.31,0.29,-0.32,0.53
17.236,0.54,0.22,-0.24,0.63
17.246,0.57,0.48,-1.28,1.48
17.256,0.05,0.81,-0.77,1.12
17.266,-0.71,2.61,-2.80,3.89
17.276,-0.85,3.43,-5.35,6.41
17.286,-0.51,-6.26,18.73,19.75
17.296,0.54,3.11,-11.76,12.18
17.306,-0.16,-2.64,5.20,5.84
17.316,0.06,-0.83,-2.54,2.67
17.327,-0.13,-1.58,1.81,2.40
17.337,0.03,-0.32,-1.88,1.90
17.347,-0.37,0.04,0.73,0.82
17.357,0.03,0.49,0.18,0.52
17.367,0.58,0.57,-1.27,1.51
17.377,0.66,0.01,0.96,1.17
17.387,0.30,0.26,-0.40,0.56
17.397,-0.19,-0.04,-0.02,0.20
17.407,-0.43,-0.05,0.04,0.43
17.417,-0.51,-0.14,0.32,0.62
17.427,-0.39,0.17,-0.18,0.46
17.437,-0.09,0.33,-0.07,0.35
17.447,0.15,0.06,-0.23,0.28
17.458,-0.01,-0.32,-0.20,0.38
17.468,-0.08,-0.54,0.23,0.59
17.478,0.01,-0.38,-0.26,0.46
17.488,0.13,-0.03,-0.10,0.17
17.498,0.56,0.53,-0.41,0.87
17.508,0.51,0.12,0.49,0.72
17.518,0.01,0.25,-0.61,0.66
17.528,-0.28,0.02,0.27,0.39
17.538,-0.39,0.18,-0.13,0.44
17.548,-0.33,-0.00,0.36,0.49
17.558,-0.30,0.33,-0.12,0.46
17.569,-0.04,0.12,0.01,0.13
17.579,-0.06,-0.11,-0.38,0.40
17.589,-0.04,-0.30,-0.05,0.31
17.599,0.18,-0.47,-0.06,0.50
17.609,-0.07,-0.19,-0.25,0.32
17.619,0.21,0.05,-0.00,0.22
17.629,0.38,0.42,0.03,0.57
17.639,0.34,0.19,0.02,0.39
17.649,0.13,-0.01,-0.36,0.39
17.659,-0.21,-0.14,0.07,0.26
17.669,-0.37,0.03,0.06,0.37
17.679,-0.41,0.23,0.40,0.61
17.689,-0.38,0.41,-0.20,0.60
17.700,-0.14,0.09,-0.22,0.28
17.710,0.14,-0.19,-0.07,0.25
17.720,0.01,-0.27,-0.05,0.27
17.730,0.08,-0.35,-0.31,0.48
17.740,0.06,-0.24,-0.01,0.24
17.750,0.30,0.13,-0.13,0.35
17.760,0.41,0.37,0.17,0.58
17.770,0.30,0.35,-0.26,0.53
17.780,-0.07,0.02,-0.09,0.11
17.790,-0.31,-0.14,-0.08,0.35
17.801,-0.45,-0.07,0.33,0.56
17.810,-0.34,0.41,0.03,0.53
17.821,-0.18,0.31,-0.06,0.36
17.831,-0.06,-0.15,-0.15,0.22
17.841,0.05,-0.46,-0.18,0.50
17.851,0.02,-0.18,-0.17,0.24
17.861,0.04,-0.15,-0.06,0.17
17.871,0.07,-0.16,-0.19,0.26
17.881,0.23,0.03,0.08,0.24
17.891,0.39,0.40,0.04,0.56
17.901,0.38,0.34,-0.27,0.58
17.911,-0.08,-0.05,0.01,0.10
17.921,-0.27,-0.25,-0.13,0.39
17.931,-0.44,-0.08,0.38,0.59
17.942,-0.47,0.64,-0.10,0.80
17.952,-0.20,0.33,-0.05,0.39
17.962,0.02,-0.17,-0.27,0.32
17.972,0.04,-0.40,-0.09,0.42
17.982,0.13,-0.29,-0.17,0.36
17.992,-0.03,-0.07,-0.20,0.21
18.002,0.14,-0.16,-0.04,0.22
18.012,0.34,0.08,-0.03,0.36
18.022,0.29,0.28,0.11,0.41
18.032,0.30,0.42,-0.29,0.59
18.043,-0.10,0.04,-0.04,0.11
18.052,-0.38,-0.15,0.04,0.41
18.063,-0.43,-0.06,0.38,0.57
18.073,-0.48,0.49,-0.21,0.72
18.083,-0.12,0.25,0.01,0.27
18.093,0.13,-0.25,-0.19,0.34
18.103,0.05,-0.40,-0.22,0.46
18.113,-0.01,-0.25,-0.03,0.25
18.123,-0.02,0.01,-0.25,0.25
18.133,0.14,-0.12,0.02,0.19
18.143,0.37,0.13,0.06,0.40
18.153,0.39,0.28,-0.09,0.49
18.163,0.21,0.37,-0.16,0.45
18.174,-0.16,0.04,-0.07,0.18
18.184,-0.40,-0.28,0.23,0.53
18.194,-0.51,0.07,0.02,0.51
18.204,-0.37,0.47,-0.09,0.60
18.214,-0.08,0.28,-0.00,0.29
18.224,0.07,-0.32,-0.29,0.44
18.234,0.01,-0.43,-0.20,0.47
18.244,0.18,-0.27,-0.07,0.33
18.254,-0.07,0.00,-0.05,0.08
18.264,0.19,0.06,-0.27,0.33
18.275,0.32,0.07,0.31,0.45
18.284,0.36,0.23,-0.17,0.46
18.295,0.08,0.25,-0.30,0.40
18.305,-0.12,0.08,0.10,0.17
18.315,-0.36,-0.20,0.23,0.47
18.325,-0.42,-0.01,0.06,0.43
18.335,-0.38,0.39,-0.14,0.57
18.345,-0.03,0.26,0.02,0.26
18.355,0.04,-0.24,-0.16,0.29
18.365,0.07,-0.51,-0.24,0.57
18.375,0.03,-0.30,-0.15,0.34
18.385,-0.01,0.04,-0.03,0.05
18.395,0.16,0.21,-0.09,0.27
18.406,0.46,0.14,0.17,0.51
18.416,0.31,0.27,-0.27,0.50
18.426,0.06,0.12,-0.09,0.16
18.436,-0.11,-0.05,-0.02,0.12
18.446,-0.49,-0.13,0.21,0.55
18.456,-0.37,0.00,0.10,0.38
18.466,-0.38,0.33,-0.15,0.53
18.476,-0.03,0.23,-0.07,0.24
18.486,-0.03,-0.12,-0.19,0.22
18.496,0.11,-0.42,-0.21,0.48
18.506,0.02,-0.29,-0.00,0.29
18.516,0.13,-0.05,-0.21,0.25
18.527,0.26,0.23,-0.10,0.35
18.537,0.40,0.29,0.29,0.57
18.547,0.25,0.18,-0.30,0.44
18.557,-0.10,0.01,-0.16,0.19
18.567,-0.12,-0.09,-0.06,0.16
18.577,-0.40,-0.08,0.31,0.51
18.587,-0.27,0.03,0.11,0.29
18.597,-0.36,0.41,-0.29,0.61
18.607,-0.04,0.19,0.09,0.21
18.617,-0.03,-0.14,-0.27,0.30
18.627,-0.02,-0.42,-0.15,0.45
18.638,0.11,-0.36,-0.10,0.39
18.648,0.12,0.01,-0.16,0.20
18.658,0.31,0.36,0.10,0.48
18.668,0.37,0.41,0.02,0.55
18.678,0.27,0.05,-0.22,0.35
18.688,-0.13,-0.07,-0.12,0.18
18.698,-0.18,-0.23,-0.13,0.32
18.708,-0.27,0.02,0.25,0.37
18.718,-0.43,0.27,0.23,0.56
18.728,-0.29,0.27,-0.23,0.46
18.738,-0.10,0.06,-0.09,0.15
18.748,0.02,-0.11,-0.10,0.14
18.759,0.03,-0.21,-0.16,0.27
18.769,0.12,-0.42,-0.17,0.47
18.779,0.07,-0.21,-0.11,0.25
18.789,0.36,0.26,-0.04,0.45
18.799,0.29,0.45,0.23,0.58
18.809,0.28,0.23,-0.35,0.51
18.819,-0.04,-0.01,-0.09,0.10
18.829,-0.28,-0.24,0.07,0.37
18.839,-0.35,-0.05,-0.06,0.36
18.849,-0.32,0.34,0.33,0.57
18.859,-0.26,0.34,-0.04,0.43
18.870,-0.13,-0.04,-0.33,0.36
18.880,0.08,-0.35,-0.04,0.36
18.890,0.01,-0.24,-0.13,0.27
18.900,-0.06,-0.12,-0.23,0.27
18.910,0.12,-0.18,-0.06,0.23
18.920,0.24,0.10,0.02,0.26
18.930,0.37,0.36,-0.01,0.52
18.940,0.40,0.35,-0.09,0.54
18.950,0.08,-0.04,-0.15,0.18
18.960,-0.30,-0.18,-0.13,0.38
18.970,-0.41,-0.13,0.30,0.53
18.980,-0.41,0.37,0.08,0.56
18.991,-0.33,0.48,-0.14,0.60
19.001,0.06,-0.07,-0.04,0.10
19.011,-0.03,-0.40,-0.33,0.52
19.021,0.05,-0.28,-0.13,0.32
19.031,0.03,-0.07,-0.07,0.10
19.041,0.09,-0.20,-0.19,0.29
19.051,0.22,-0.02,-0.07,0.23
19.061,0.44,0.21,0.20,0.52
19.071,0.32,0.44,-0.28,0.61
19.081,-0.08,0.23,-0.01,0.24
19.091,-0.30,-0.19,-0.09,0.36
19.101,-0.40,-0.17,0.10,0.44
19.112,-0.28,0.16,0.27,0.42
19.122,-0.32,0.56,-0.19,0.67
19.132,0.06,-0.03,0.01,0.07
19.142,-0.02,-0.44,-0.33,0.55
19.152,0.03,-0.45,-0.13,0.47
19.162,-0.05,-0.09,-0.11,0.15
19.172,0.03,0.09,-0.17,0.20
19.182,0.34,0.04,0.12,0.37
19.192,0.38,0.21,-0.05,0.44
19.202,0.29,0.30,-0.17,0.45
19.212,0.08,0.21,-0.15,0.26
19.222,-0.30,-0.22,0.02,0.37
19.233,-0.43,-0.18,0.10,0.48
19.243,-0.40,0.26,0.19,0.52
19.253,-0.28,0.56,-0.16,0.65
19.263,-0.11,0.17,-0.10,0.22
19.273,0.02,-0.45,-0.03,0.45
19.283,0.01,-0.49,-0.29,0.57
19.293,0.04,-0.21,-0.09,0.24
19.303,0.11,0.09,-0.12,0.18
19.313,0.31,0.05,0.10,0.33
19.323,0.32,0.12,0.05,0.34
19.334,0.32,0.24,-0.21,0.45
19.344,-0.02,0.22,-0.03,0.22
19.354,-0.21,0.03,-0.06,0.22
19.364,-0.37,-0.24,0.22,0.49
19.374,-0.46,0.14,0.08,0.49
19.384,-0.24,0.51,-0.11,0.58
19.394,-0.04,0.18,0.01,0.19
19.404,0.02,-0.40,-0.30,0.50
19.414,0.02,-0.56,-0.14,0.57
19.424,0.11,-0.27,-0.11,0.31
19.434,0.05,0.09,-0.12,0.15
19.444,0.17,0.25,-0.01,0.30
19.454,0.36,0.04,0.21,0.42
19.465,0.40,0.17,-0.33,0.54
19.475,-0.01,0.17,-0.06,0.18
19.485,-0.21,-0.05,0.02,0.21
19.495,-0.36,-0.14,0.24,0.46
19.505,-0.59,0.31,0.04,0.66
19.515,-0.33,0.38,-0.06,0.51
19.525,-0.03,0.08,-0.16,0.18
19.535,0.03,-0.23,-0.15,0.27
19.545,0.23,-0.59,-0.10,0.65
19.555,-0.02,-0.28,-0.31,0.42
19.565,0.21,-0.01,-0.02,0.22
19.575,0.24,0.37,0.11,0.46
19.585,0.42,0.23,-0.07,0.49
19.596,0.20,0.10,-0.16,0.28
19.606,-0.17,0.04,-0.11,0.21
19.616,-0.23,-0.09,-0.05,0.25
19.626,-0.31,0.03,0.48,0.58
19.636,-0.60,0.34,-0.12,0.70
19.646,-0.16,0.27,-0.19,0.36
19.656,0.05,-0.15,0.04,0.16
19.666,0.04,-0.27,-0.41,0.49
19.676,0.07,-0.46,0.07,0.47
19.686,0.04,-0.20,-0.28,0.35
19.696,0.10,0.06,-0.01,0.12
19.706,0.31,0.35,0.09,0.47
19.717,0.46,0.20,-0.05,0.51
19.727,0.28,0.03,-0.17,0.33
19.737,-0.07,-0.04,-0.12,0.15
19.747,-0.34,-0.08,0.07,0.35
19.757,-0.46,0.23,0.30,0.60
19.767,-0.56,0.45,-0.01,0.72
19.777,-0.14,0.21,-0.36,0.44
19.787,0.10,-0.30,0.06,0.32
19.797,0.03,-0.21,-0.33,0.39
19.807,0.13,-0.35,-0.03,0.37
19.818,0.06,-0.24,-0.21,0.33
19.828,0.20,-0.06,-0.05,0.21
19.838,0.27,0.32,0.17,0.46
19.848,0.42,0.40,-0.24,0.62
19.858,0.13,0.03,0.07,0.16
19.868,-0.18,-0.08,-0.31,0.37
19.878,-0.37,-0.19,0.35,0.54
19.888,-0.47,0.34,0.19,0.61
19.898,-0.42,0.47,-0.20,0.66
19.908,-0.04,0.04,-0.07,0.09
19.918,0.08,-0.47,-0.09,0.48
19.928,-0.03,-0.38,-0.28,0.48
19.938,-0.01,-0.03,-0.16,0.16
19.949,0.13,-0.11,0.01,0.18
19.959,0.14,-0.00,-0.24,0.28
19.969,0.40,0.25,0.20,0.51
19.979,0.38,0.41,-0.16,0.58
19.989,0.10,0.07,-0.13,0.18
19.999,-0.18,-0.23,-0.06,0.30
20.009,-0.33,-0.19,0.31,0.49
20.019,-0.54,0.46,0.01,0.71
20.029,-0.35,0.48,-0.12,0.60
20.039,-0.04,-0.16,-0.11,0.19
20.049,0.04,-0.37,-0.26,0.45
20.060,0.10,-0.29,-0.01,0.31
20.070,0.05,-0.05,-0.23,0.24
20.080,0.02,-0.23,-0.05,0.24
20.090,0.24,0.00,-0.12,0.27
20.100,0.37,0.24,0.21,0.49
20.110,0.35,0.49,-0.32,0.68
20.120,-0.06,0.20,0.01,0.21
20.130,-0.29,-0.17,-0.09,0.35
20.140,-0.38,-0.19,0.34,0.54
20.150,-0.55,0.35,-0.01,0.65
20.161,-0.17,0.44,-0.23,0.53
20.170,0.11,-0.21,0.12,0.26
20.181,0.01,-0.39,-0.43,0.57
20.191,0.07,-0.34,-0.08,0.36
20.201,-0.01,-0.04,-0.09,0.10
20.211,0.06,0.08,-0.19,0.22
20.221,0.27,0.03,0.14,0.31
20.231,0.40,0.18,-0.00,0.44
20.241,0.30,0.32,-0.27,0.52
20.251,-0.05,0.19,-0.06,0.21
20.261,-0.36,-0.24,0.24,0.50
20.271,-0.56,0.00,0.08,0.56
20.281,-0.36,0.35,-0.06,0.51
20.292,-0.19,0.40,-0.13,0.46
20.302,0.06,-0.22,-0.05,0.24
20.312,0.07,-0.50,-0.30,0.59
20.322,0.08,-0.31,-0.11,0.33
20.332,0.11,-0.02,-0.12,0.16
20.342,0.01,0.15,-0.10,0.18
20.352,0.36,0.12,0.12,0.39
20.362,0.34,0.17,-0.03,0.38
20.372,0.18,0.23,-0.31,0.42
20.382,-0.17,0.17,0.03,0.25
20.392,-0.33,-0.24,0.13,0.43
20.403,-0.36,-0.05,0.12,0.38
20.413,-0.44,0.37,0.02,0.57
20.423,-0.12,0.40,-0.23,0.48
20.433,-0.03,-0.10,0.00,0.10
20.443,0.16,-0.56,-0.25,0.63
20.453,-0.05,-0.45,-0.16,0.48
20.463,0.06,-0.07,-0.14,0.17
20.473,0.11,0.31,-0.05,0.33
20.483,0.37,0.19,0.15,0.44
20.493,0.39,0.21,-0.17,0.48
20.503,0.18,0.15,-0.14,0.27
20.513,-0.22,0.04,-0.09,0.24
20.524,-0.38,-0.15,0.16,0.44
20.533,-0.36,-0.09,0.25,0.44
20.544,-0.41,0.36,-0.34,0.64
20.554,-0.03,0.31,0.09,0.32
20.564,-0.03,-0.04,-0.17,0.17
20.574,0.08,-0.50,-0.24,0.56
20.584,0.10,-0.36,-0.17,0.41
20.594,0.20,-0.11,-0.04,0.23
20.604,0.10,0.21,-0.15,0.27
20.614,0.35,0.32,0.14,0.49
20.625,0.33,0.19,-0.08,0.39
20.634,-0.01,0.08,-0.26,0.27
20.644,-0.29,-0.03,-0.16,0.34
20.655,-0.26,-0.14,0.33,0.44
20.665,-0.30,-0.00,0.09,0.31
20.675,-0.38,0.34,-0.13,0.52
20.685,0.01,0.26,-0.08,0.27
20.695,-0.04,-0.06,-0.07,0.10
20.705,0.02,-0.35,-0.27,0.44
20.715,0.10,-0.40,-0.10,0.42
20.725,0.08,-0.16,-0.10,0.21
20.735,0.23,0.24,-0.09,0.35
20.745,0.25,0.43,0.21,0.54
20.755,0.43,0.16,-0.30,0.56
20.766,-0.06,0.04,-0.12,0.15
20.776,-0.21,-0.17,-0.01,0.27
20.786,-0.33,-0.08,0.03,0.34
20.796,-0.40,0.21,0.30,0.54
20.806,-0.25,0.33,-0.10,0.43
20.816,-0.25,0.22,-0.18,0.38
20.826,0.10,-0.09,-0.15,0.20
20.836,0.08,-0.25,-0.04,0.26
20.846,0.11,-0.45,-0.25,0.53
20.856,0.06,-0.30,-0.12,0.33
20.866,0.28,0.11,-0.06,0.31
20.876,0.30,0.47,0.16,0.57
20.887,0.20,0.37,-0.15,0.45
20.897,0.05,0.01,-0.18,0.18
20.907,-0.26,-0.16,-0.08,0.32
20.917,-0.31,-0.11,0.18,0.38
20.927,-0.33,0.26,0.14,0.45
20.937,-0.29,0.33,0.00,0.44
20.947,-0.04,0.05,-0.18,0.19
20.957,-0.02,-0.25,-0.20,0.32
20.967,0.00,-0.28,-0.10,0.30
20.977,0.02,-0.20,-0.20,0.28
20.988,0.08,-0.23,-0.13,0.27
20.997,0.16,-0.03,-0.03,0.17
21.008,0.37,0.34,0.02,0.50
21.018,0.37,0.40,-0.07,0.55
21.028,0.05,0.10,-0.13,0.17
21.038,-0.21,-0.26,-0.20,0.38
21.048,-0.46,-0.14,0.12,0.50
21.058,-0.39,0.25,0.35,0.58
21.068,-0.35,0.59,-0.29,0.75
21.078,-0.05,0.07,0.12,0.15
21.088,0.01,-0.29,-0.38,0.48
21.098,0.09,-0.43,-0.05,0.45
21.109,0.13,-0.15,-0.18,0.27
21.119,0.08,-0.14,-0.18,0.24
21.129,0.07,-0.10,0.06,0.14
21.139,0.33,0.20,-0.03,0.38
21.149,0.35,0.34,-0.09,0.50
21.159,0.23,0.22,-0.12,0.34
21.169,-0.29,-0.01,-0.08,0.30
21.179,-0.47,-0.13,0.09,0.50
21.189,-0.38,0.14,0.28,0.49
21.199,-0.33,0.55,-0.09,0.65
21.209,0.02,0.14,-0.03,0.14
21.219,0.06,-0.39,-0.23,0.46
21.229,0.04,-0.42,-0.11,0.44
21.239,-0.01,-0.22,-0.13,0.26
21.250,-0.00,0.00,-0.21,0.21
21.260,0.23,-0.04,0.05,0.24
21.270,0.30,0.16,0.10,0.35
21.280,0.38,0.22,-0.19,0.48
21.290,0.17,0.23,-0.12,0.31
21.300,-0.21,0.10,-0.03,0.24
21.311,-0.55,0.02,0.17,0.58
21.320,-0.42,-0.07,0.19,0.47
21.330,-0.34,0.42,-0.17,0.57
21.340,-0.05,0.32,-0.02,0.32
21.351,0.12,-0.36,-0.18,0.42
21.361,-0.01,-0.39,-0.30,0.49
21.371,0.20,-0.22,-0.04,0.30
21.381,0.01,0.01,-0.08,0.09
21.391,0.14,-0.04,-0.25,0.29
21.401,0.39,0.10,0.24,0.47
21.411,0.34,0.23,-0.16,0.44
21.421,0.08,0.16,-0.16,0.24
21.431,-0.22,0.13,-0.11,0.28
21.441,-0.62,0.25,0.13,0.68
21.451,-0.31,-0.05,0.27,0.42
21.461,-0.31,0.12,-0.15,0.36
21.472,-0.04,0.23,-0.20,0.31
21.481,0.14,-0.24,-0.01,0.28
21.492,0.07,-0.48,-0.29,0.56
21.502,-0.02,-0.31,-0.11,0.33
21.512,-0.01,0.04,-0.19,0.20
21.522,0.16,0.13,0.05,0.21
21.532,0.47,-0.05,0.06,0.47
21.542,0.32,0.21,-0.23,0.45
21.552,0.13,0.18,-0.02,0.22
21.562,-0.19,0.15,-0.14,0.28
21.572,-0.48,0.04,0.25,0.54
21.583,-0.42,0.04,0.22,0.48
21.593,-0.43,0.20,-0.15,0.50
21.603,-0.03,0.10,-0.16,0.19
21.613,0.06,-0.02,-0.14,0.16
21.623,0.24,-0.46,-0.03,0.52
21.633,0.00,-0.38,-0.31,0.49
21.643,0.04,-0.17,-0.03,0.17
21.653,0.27,0.22,-0.11,0.37
21.663,0.35,0.24,0.26,0.49
21.673,0.35,0.19,-0.26,0.48
21.683,-0.03,0.15,-0.17,0.22
21.693,-0.35,-0.03,0.03,0.35
21.704,-0.50,0.16,0.14,0.54
21.714,-0.27,0.03,0.32,0.42
21.724,-0.30,0.32,-0.38,0.58
21.734,-0.00,0.02,-0.06,0.06
21.744,0.15,-0.23,-0.09,0.29
21.754,-0.00,-0.32,-0.27,0.41
21.764,0.07,-0.31,-0.14,0.35
21.774,0.03,-0.11,-0.08,0.14
21.784,0.34,0.24,-0.07,0.42
21.794,0.37,0.28,0.20,0.51
21.804,0.35,0.09,-0.30,0.47
21.815,-0.09,0.04,-0.12,0.16
21.825,-0.34,-0.00,0.05,0.35
21.835,-0.44,0.15,0.26,0.53
21.845,-0.40,0.23,0.13,0.48
21.855,-0.27,0.28,-0.29,0.48
21.865,0.01,-0.18,-0.03,0.18
21.875,0.03,-0.22,-0.29,0.37
21.885,0.11,-0.19,-0.00,0.22
21.895,0.23,-0.30,-0.09,0.39
21.905,0.02,-0.06,-0.32,0.33
21.915,0.40,0.14,0.26,0.49
21.925,0.35,0.34,-0.06,0.50
21.935,0.12,0.11,-0.09,0.19
21.946,-0.24,0.05,-0.23,0.34
21.956,-0.41,-0.04,0.16,0.44
21.966,-0.30,0.21,0.31,0.48
21.976,-0.36,0.35,-0.05,0.51
21.986,-0.06,0.04,-0.18,0.19
21.996,-0.03,-0.34,-0.16,0.38
22.006,0.09,-0.28,-0.23,0.37
22.016,-0.02,-0.00,-0.03,0.04
22.026,0.08,-0.10,-0.26,0.29
22.036,0.07,-0.13,-0.04,0.15
22.046,0.44,0.15,0.04,0.47
22.057,0.34,0.34,0.05,0.49
22.067,0.18,0.11,-0.29,0.36
22.077,-0.23,-0.08,0.02,0.24
22.087,-0.44,-0.17,0.23,0.52
22.097,-0.46,0.16,0.18,0.52
22.107,-0.35,0.55,-0.19,0.67
22.117,0.02,0.05,0.00,0.06
22.127,0.04,-0.30,-0.18,0.35
22.137,-0.00,-0.34,-0.24,0.42
22.147,0.06,-0.08,-0.05,0.11
22.157,0.09,-0.11,-0.18,0.23
22.167,0.14,-0.08,-0.08,0.18
22.178,0.34,0.15,0.18,0.42
22.187,0.38,0.34,-0.32,0.60
22.198,0.01,0.24,0.12,0.27
22.208,-0.24,-0.05,-0.16,0.30
22.218,-0.47,-0.10,0.16,0.51
22.228,-0.38,0.17,0.19,0.46
22.238,-0.33,0.50,-0.19,0.63
22.248,0.06,-0.10,-0.03,0.13
22.258,0.07,-0.38,-0.36,0.53
22.268,0.12,-0.38,-0.02,0.40
22.278,-0.04,-0.04,-0.19,0.20
22.288,-0.10,0.07,-0.15,0.20
22.298,0.24,0.04,-0.04,0.25
22.309,0.45,0.10,0.24,0.52
22.319,0.32,0.27,-0.45,0.61
22.329,0.06,0.30,-0.04,0.30
22.339,-0.33,-0.08,0.46,0.57
22.349,-0.52,-0.08,-0.18,0.56
22.359,-0.48,0.06,0.27,0.55
22.369,-0.14,0.49,-0.37,0.63
22.379,-0.03,0.01,0.17,0.18
22.389,0.24,-0.47,-0.42,0.67
22.399,-0.06,-0.37,-0.14,0.40
22.410,0.11,-0.06,-0.09,0.16
22.420,0.04,0.11,-0.11,0.17
22.430,0.28,0.02,-0.00,0.28
22.440,0.35,0.25,0.05,0.43
22.450,0.27,0.26,-0.16,0.41
22.460,-0.02,0.20,-0.16,0.26
22.470,-0.38,-0.18,0.10,0.44
22.480,-0.33,-0.22,0.25,0.47
22.490,-0.43,0.26,-0.10,0.52
22.500,-0.22,0.38,-0.07,0.44
22.510,0.00,0.07,-0.10,0.12
22.520,0.19,-0.47,-0.18,0.53
22.531,0.04,-0.48,-0.19,0.52
22.541,-0.01,-0.21,-0.15,0.25
22.551,-0.05,0.21,-0.11,0.25
22.561,0.32,0.27,0.05,0.42
22.571,0.47,0.19,0.02,0.51
22.581,0.32,0.23,-0.24,0.46
22.591,-0.13,0.07,-0.10,0.17
22.601,-0.44,-0.05,0.08,0.45
22.611,-0.37,-0.15,0.35,0.53
22.621,-0.47,0.20,-0.24,0.57
22.631,-0.13,0.35,-0.04,0.38
22.642,0.10,0.03,-0.01,0.10
22.652,-0.02,-0.35,-0.30,0.47
22.662,0.04,-0.43,-0.17,0.46
22.672,0.19,-0.21,-0.03,0.29
22.682,0.04,0.16,-0.13,0.21
22.692,0.23,0.29,-0.06,0.38
22.702,0.33,0.18,0.17,0.41
22.712,0.11,0.19,-0.38,0.43
22.722,-0.08,0.00,-0.05,0.09
22.732,-0.26,-0.05,0.01,0.27
22.742,-0.36,-0.14,0.40,0.56
22.752,-0.38,0.20,-0.15,0.46
22.762,-0.22,0.34,-0.14,0.43
22.773,0.07,0.05,0.04,0.09
22.783,0.03,-0.24,-0.27,0.36
22.793,0.03,-0.46,-0.14,0.48
22.803,0.10,-0.21,-0.18,0.29
22.813,0.22,0.10,0.09,0.26
22.823,0.23,0.50,-0.08,0.56
22.833,0.22,0.13,0.11,0.28
22.843,0.15,0.10,-0.35,0.39
22.853,-0.14,0.01,-0.05,0.15
22.863,-0.23,-0.10,0.04,0.26
22.873,-0.36,0.09,0.20,0.42
22.883,-0.36,0.17,0.06,0.40
22.893,-0.20,0.26,-0.26,0.42
22.904,0.07,-0.04,-0.08,0.11
22.914,-0.06,-0.17,-0.15,0.23
22.924,0.14,-0.34,-0.21,0.42
22.934,-0.01,-0.38,-0.06,0.38
22.944,0.21,-0.09,-0.26,0.35
22.954,0.33,0.40,0.14,0.54
22.964,0.31,0.50,-0.02,0.59
22.974,0.09,0.05,-0.23,0.26
22.985,-0.11,-0.10,-0.26,0.30
22.994,-0.37,-0.10,0.21,0.43
23.004,-0.36,0.17,0.17,0.43
23.014,-0.36,0.22,0.05,0.42
23.025,-0.04,0.15,-0.26,0.30
23.035,-0.03,-0.15,-0.03,0.15
23.045,0.06,-0.27,-0.20,0.34
23.055,-0.08,-0.11,-0.20,0.24
23.065,0.06,-0.21,-0.05,0.22
23.075,0.09,-0.07,-0.18,0.21
23.085,0.35,0.13,0.20,0.42
23.095,0.41,0.42,-0.23,0.63
23.105,0.13,0.28,-0.02,0.31
23.115,-0.17,-0.14,-0.13,0.26
23.126,-0.37,-0.23,-0.13,0.45
23.136,-0.31,0.11,0.45,0.55
23.146,-0.38,0.57,-0.09,0.69
23.156,-0.21,0.20,-0.09,0.30
23.166,0.01,-0.29,-0.23,0.37
23.176,0.03,-0.35,-0.11,0.37
23.186,0.13,-0.22,-0.06,0.26
23.196,0.03,-0.07,-0.29,0.30
23.206,0.02,-0.13,0.02,0.13
23.216,0.34,0.09,0.01,0.35
23.226,0.30,0.28,-0.01,0.42
23.237,0.30,0.31,-0.32,0.53
23.247,-0.15,0.18,0.07,0.25
23.257,-0.36,-0.18,0.05,0.41
23.267,-0.49,-0.09,0.11,0.51
23.277,-0.24,0.41,0.03,0.48
23.287,-0.09,0.34,0.03,0.35
23.297,0.04,-0.27,-0.34,0.43
23.307,-0.06,-0.43,-0.16,0.47
23.317,0.11,-0.30,-0.01,0.32
23.327,-0.03,-0.05,-0.22,0.22
23.337,0.14,-0.03,-0.15,0.21
23.347,0.27,0.12,0.27,0.40
23.358,0.41,0.21,-0.18,0.49
23.368,0.17,0.25,-0.12,0.32
23.378,-0.07,0.12,-0.15,0.21
23.388,-0.43,-0.09,0.15,0.46
23.398,-0.43,-0.03,0.12,0.44
23.408,-0.34,0.24,0.02,0.41
23.418,-0.14,0.44,-0.27,0.53
23.428,0.06,-0.10,0.06,0.13
23.438,0.03,-0.44,-0.30,0.53
23.448,0.03,-0.40,-0.14,0.43
23.458,0.02,-0.07,-0.13,0.15
23.469,0.11,0.08,-0.18,0.22
23.479,0.32,-0.01,0.20,0.38
23.489,0.34,0.20,-0.18,0.43
23.499,0.25,0.22,-0.11,0.35
23.509,-0.16,0.15,-0.04,0.22
23.519,-0.43,-0.06,-0.00,0.44
23.529,-0.38,-0.01,0.31,0.49
23.539,-0.37,0.26,0.01,0.45
23.549,-0.14,0.29,-0.20,0.38
23.559,0.06,-0.07,-0.21,0.23
23.569,0.18,-0.55,0.01,0.58
23.579,0.00,-0.31,-0.25,0.39
23.590,-0.06,-0.08,-0.12,0.15
23.599,0.11,0.16,-0.02,0.20
23.610,0.34,0.06,0.07,0.35
23.620,0.36,0.12,-0.15,0.41
23.630,0.22,0.21,-0.15,0.33
23.640,-0.18,0.13,-0.11,0.25
23.650,-0.36,-0.04,0.14,0.39
23.660,-0.41,-0.05,0.26,0.49
23.670,-0.49,0.35,-0.22,0.64
23.680,-0.03,0.20,0.03,0.21
23.690,0.03,-0.11,-0.16,0.19
23.700,0.00,-0.39,-0.26,0.47
23.711,0.16,-0.36,-0.18,0.43
23.721,0.09,-0.17,-0.01,0.19
23.731,0.20,0.09,-0.17,0.27
23.741,0.37,0.33,0.08,0.50
23.751,0.26,0.17,0.07,0.32
23.761,-0.01,0.10,-0.36,0.37
23.771,-0.22,-0.03,-0.07,0.23
23.781,-0.29,0.08,0.22,0.38
23.791,-0.36,0.11,0.25,0.45
23.801,-0.43,0.33,-0.16,0.57
23.811,-0.08,0.06,-0.13,0.16
23.822,0.08,-0.21,-0.22,0.31
23.832,0.13,-0.38,-0.05,0.41
23.842,-0.01,-0.29,-0.28,0.40
23.852,-0.01,-0.09,-0.09,0.13
23.862,0.34,0.15,0.02,0.37
23.872,0.22,0.39,0.12,0.46
23.882,0.36,0.10,-0.23,0.44
23.892,-0.01,0.06,-0.15,0.17
23.902,-0.19,-0.14,-0.06,0.24
23.912,-0.32,-0.09,0.26,0.42
23.922,-0.52,0.34,0.16,0.64
23.932,-0.34,0.39,-0.22,0.56
23.942,-0.01,0.09,-0.15,0.18
23.953,0.15,-0.28,-0.05,0.32
23.963,-0.07,-0.29,-0.19,0.36
23.973,0.17,-0.39,-0.19,0.46
23.983,0.11,-0.13,-0.12,0.21
23.993,0.29,0.17,-0.02,0.34
24.003,0.34,0.35,0.12,0.50
24.013,0.21,0.25,-0.29,0.44
24.023,-0.09,0.01,-0.08,0.12
24.033,-0.26,-0.23,-0.03,0.35
24.043,-0.28,-0.00,0.24,0.37
24.054,-0.67,0.53,0.17,0.87
24.063,-0.15,0.29,-0.28,0.43
24.073,-0.03,-0.14,-0.11,0.19
24.084,0.12,-0.41,-0.13,0.44
24.094,0.05,-0.19,-0.17,0.26
24.104,0.04,-0.27,-0.07,0.28
24.114,0.05,-0.03,-0.31,0.32
24.124,0.35,0.22,-0.07,0.41
24.134,0.37,0.39,0.36,0.65
24.144,-0.01,0.37,-0.36,0.51
24.154,0.08,-0.23,0.08,0.26
24.164,-0.26,-0.33,-0.26,0.49
24.174,-0.32,-0.06,0.46,0.56
24.184,-0.64,0.72,-0.23,0.99
24.195,-0.05,0.29,-0.10,0.31
24.205,-0.05,-0.16,-0.10,0.20
24.215,0.19,-0.48,-0.21,0.56
24.225,0.02,-0.30,-0.16,0.34
24.235,0.02,-0.09,-0.17,0.20
24.245,0.21,-0.01,0.01,0.21
24.255,0.24,0.20,0.02,0.32
24.265,0.30,0.27,-0.06,0.41
24.275,0.19,0.30,-0.06,0.36
24.285,-0.18,0.00,-0.16,0.25
24.295,-0.24,-0.36,0.14,0.45
24.306,-0.54,0.09,0.19,0.58
24.316,-0.46,0.68,-0.18,0.85
24.326,-0.05,0.22,0.05,0.23
24.336,0.11,-0.41,-0.33,0.54
24.346,0.14,-0.56,-0.16,0.60
24.356,0.11,-0.21,-0.08,0.25
24.366,-0.08,0.04,-0.10,0.14
24.376,0.05,0.09,-0.12,0.15
24.386,0.31,0.26,0.06,0.41
24.396,0.42,0.26,0.06,0.49
24.406,0.23,0.29,-0.36,0.52
24.417,-0.27,-0.05,0.08,0.29
24.427,-0.28,-0.27,0.21,0.44
24.437,-0.68,0.13,0.17,0.71
24.447,-0.38,0.56,-0.32,0.75
24.457,-0.03,0.14,0.08,0.17
24.467,0.15,-0.47,-0.22,0.54
24.477,0.09,-0.50,-0.32,0.60
24.487,0.15,-0.21,-0.01,0.26
24.497,-0.05,0.13,-0.12,0.19
24.507,0.13,0.12,-0.11,0.21
24.517,0.35,0.13,0.21,0.43
24.527,0.30,0.24,-0.20,0.43
24.538,0.01,0.28,-0.27,0.39
24.548,-0.16,-0.03,0.18,0.24
24.558,-0.38,-0.28,0.14,0.50
24.568,-0.51,0.16,-0.06,0.54
24.578,-0.20,0.40,-0.05,0.45
24.588,-0.07,0.22,-0.04,0.23
24.598,0.12,-0.33,-0.25,0.43
24.608,0.01,-0.46,-0.19,0.50
24.618,0.09,-0.25,-0.05,0.27
24.628,0.09,0.05,-0.20,0.23
24.638,0.14,0.21,-0.00,0.25
24.648,0.40,0.16,0.11,0.45
24.659,0.30,0.27,-0.21,0.46
24.669,-0.02,0.18,-0.21,0.27
24.679,-0.25,-0.01,0.03,0.25
24.689,-0.40,-0.27,0.33,0.58
24.699,-0.50,0.10,-0.03,0.52
24.709,-0.28,0.36,-0.18,0.49
24.719,0.05,0.17,0.01,0.18
24.729,0.05,-0.18,-0.23,0.29
24.739,0.14,-0.51,-0.12,0.54
24.749,0.07,-0.23,-0.20,0.31
24.759,0.13,0.09,-0.02,0.16
24.769,0.19,0.24,-0.05,0.31
24.780,0.33,0.16,0.05,0.37
24.790,0.15,0.21,-0.24,0.36
24.800,-0.04,0.10,-0.18,0.21
24.810,-0.23,-0.09,0.09,0.26
24.820,-0.45,-0.08,0.17,0.49
24.830,-0.33,0.10,0.08,0.35
24.840,-0.18,0.32,-0.22,0.43
24.850,-0.03,0.10,-0.04,0.11
24.860,0.04,-0.16,-0.24,0.29
24.870,0.06,-0.46,-0.15,0.49
24.880,0.06,-0.33,-0.18,0.38
24.890,0.13,0.01,-0.09,0.16
24.901,0.25,0.40,0.09,0.48
24.911,0.34,0.33,-0.01,0.47
24.921,0.15,0.04,-0.17,0.23
24.931,-0.12,0.02,-0.24,0.27
24.941,-0.21,-0.08,-0.00,0.23
24.951,-0.32,0.05,0.33,0.46
24.961,-0.48,0.19,0.10,0.52
24.971,-0.17,0.23,-0.26,0.39
24.981,-0.02,0.02,-0.05,0.06
24.991,0.04,-0.16,-0.13,0.21
25.002,0.03,-0.23,-0.18,0.29
25.012,0.15,-0.39,-0.10,0.43
25.022,0.01,-0.13,-0.17,0.22
25.032,0.36,0.24,0.10,0.44
25.042,0.32,0.44,-0.01,0.54
25.052,0.21,0.18,-0.19,0.34
25.062,-0.11,-0.06,-0.09,0.15
25.072,-0.26,-0.19,-0.13,0.35
25.082,-0.38,0.07,0.35,0.52
25.092,-0.36,0.43,0.07,0.57
25.102,-0.16,0.25,-0.07,0.30
25.112,-0.01,-0.21,-0.26,0.33
25.122,0.06,-0.37,-0.10,0.39
25.133,0.08,-0.21,-0.09,0.25
25.143,-0.02,-0.10,-0.27,0.29
25.153,0.04,-0.11,0.04,0.12
25.163,0.29,0.16,-0.09,0.34
25.173,0.31,0.28,0.09,0.43
25.183,0.30,0.26,-0.31,0.51
25.193,-0.04,-0.08,0.00,0.09
25.203,-0.27,-0.25,-0.08,0.38
25.213,-0.41,-0.08,0.17,0.45
25.223,-0.43,0.61,0.14,0.76
25.233,-0.15,0.65,-0.65,0.93
25.243,0.06,-0.44,0.33,0.56
25.254,0.28,-0.49,0.19,0.59
25.264,-0.07,-0.30,-0.16,0.35
25.274,-0.29,-0.07,-0.63,0.70
25.284,0.04,-0.25,0.20,0.32
25.294,0.36,0.15,-0.28,0.48
25.304,0.42,0.25,0.18,0.52
25.314,0.45,0.32,-0.25,0.61
25.324,-0.11,0.14,-0.09,0.20
25.334,-0.35,-0.13,-0.21,0.42
25.345,-0.27,-0.05,0.21,0.34
25.354,-0.17,0.25,-0.03,0.31
25.365,-0.36,0.53,-0.15,0.66
25.375,-0.12,-0.04,0.19,0.23
25.385,-0.48,-0.41,0.21,0.67
25.395,0.02,-0.56,-0.40,0.68
25.405,0.22,-0.28,-0.17,0.39
25.415,0.47,0.00,-0.42,0.63
25.425,0.25,0.14,0.22,0.36
25.435,0.31,0.25,-0.09,0.41
25.445,0.14,0.24,-0.16,0.32
25.455,-0.10,0.15,-0.09,0.20
25.465,-0.22,-0.17,-0.12,0.30
25.476,-0.35,-0.02,0.22,0.41
25.486,-0.40,0.20,0.24,0.50
25.496,-0.24,0.48,-0.26,0.60
25.506,-0.07,0.09,-0.11,0.16
25.516,0.15,-0.44,-0.06,0.47
25.526,-0.05,-0.39,-0.27,0.48
25.536,0.09,-0.18,-0.13,0.24
25.546,0.10,0.06,-0.08,0.14
25.556,0.25,0.05,-0.08,0.27
25.566,0.29,0.13,0.09,0.33
25.576,0.27,0.25,-0.24,0.44
25.586,-0.00,0.22,-0.07,0.23
25.596,-0.28,-0.09,-0.00,0.29
25.607,-0.44,-0.15,0.23,0.52
25.617,-0.44,0.20,0.07,0.49
25.627,-0.22,0.45,-0.12,0.52
25.637,0.07,0.08,-0.06,0.12
25.647,0.08,-0.47,-0.20,0.51
25.657,0.02,-0.45,-0.21,0.49
25.667,0.01,-0.23,-0.07,0.24
25.677,-0.03,0.09,-0.15,0.18
25.687,0.27,0.13,-0.02,0.30
25.697,0.37,0.02,0.13,0.40
25.707,0.36,0.23,-0.27,0.51
25.718,-0.02,0.22,-0.09,0.24
25.728,-0.28,0.01,0.03,0.28
25.738,-0.47,-0.13,0.34,0.59
25.748,-0.50,0.21,-0.13,0.56
25.758,-0.20,0.30,-0.10,0.37
25.768,0.10,0.10,-0.14,0.20
25.778,0.08,-0.30,-0.15,0.35
25.788,0.05,-0.38,-0.19,0.43
25.798,0.07,-0.23,-0.19,0.30
25.808,0.08,-0.01,0.06,0.10
25.818,0.29,0.22,-0.10,0.38
25.828,0.38,0.11,0.10,0.41
25.839,0.18,0.20,-0.31,0.41
25.849,-0.11,0.01,-0.03,0.11
25.859,-0.33,0.03,0.03,0.33
25.869,-0.44,-0.01,0.34,0.56
25.879,-0.39,0.24,-0.09,0.47
25.889,-0.17,0.33,-0.14,0.40
25.899,0.09,-0.13,-0.09,0.18
25.909,0.06,-0.29,-0.26,0.40
25.919,0.09,-0.35,-0.04,0.37
25.929,-0.05,-0.14,-0.21,0.26
25.939,0.12,0.04,-0.06,0.14
25.950,0.32,0.33,0.12,0.47
25.960,0.37,0.25,-0.08,0.46
25.970,0.12,0.02,-0.17,0.21
25.980,-0.13,-0.10,-0.23,0.28
25.990,-0.35,-0.09,0.23,0.42
26.000,-0.39,0.15,0.28,0.51
26.010,-0.46,0.37,-0.20,0.62
26.020,-0.11,0.20,-0.24,0.33
26.030,0.04,-0.05,-0.05,0.08
26.040,0.09,-0.31,-0.22,0.39
26.051,0.20,-0.47,0.02,0.52
26.060,0.03,-0.18,-0.38,0.42
26.071,0.28,0.13,0.05,0.31
26.081,0.19,0.19,0.07,0.28
26.091,0.30,0.24,-0.38,0.53
