time,ax,ay,az,atotal
0.000,-0.01,0.05,-0.06,0.08
0.010,-0.40,-0.03,0.32,0.51
0.020,-0.53,0.12,0.05,0.54
0.030,-0.45,0.28,-0.16,0.55
0.040,-0.03,0.03,-0.12,0.12
0.050,0.21,-0.15,-0.18,0.32
0.061,0.29,-0.49,-0.04,0.57
0.071,0.06,-0.31,-0.26,0.41
0.081,0.14,0.00,-0.13,0.19
0.091,0.30,0.23,0.16,0.41
0.101,0.38,0.23,-0.07,0.45
0.111,0.17,0.08,-0.24,0.30
0.121,0.08,-0.02,-0.14,0.16
0.131,-0.37,0.04,0.02,0.37
0.141,-0.39,0.05,0.33,0.51
0.151,-0.39,0.10,0.02,0.41
0.161,-0.28,0.26,-0.30,0.48
0.171,0.08,-0.09,0.04,0.13
0.182,0.15,-0.33,-0.25,0.44
0.192,0.17,-0.43,-0.26,0.53
0.202,0.05,-0.20,-0.04,0.21
0.212,0.23,0.04,-0.14,0.27
0.222,0.19,0.30,0.15,0.39
0.232,0.43,0.35,-0.25,0.61
0.242,0.19,0.11,0.03,0.22
0.252,-0.08,-0.07,-0.24,0.26
0.262,-0.35,-0.18,0.04,0.40
0.272,-0.32,0.12,0.35,0.49
0.282,-0.45,0.27,0.05,0.53
0.293,-0.35,0.13,-0.43,0.57
0.303,0.17,-0.31,0.12,0.38
0.313,0.18,-0.24,-0.29,0.42
0.323,0.16,-0.30,-0.13,0.37
0.333,0.21,-0.23,-0.14,0.33
0.343,0.18,0.06,-0.12,0.23
0.353,0.29,0.33,0.21,0.48
0.363,0.35,0.32,-0.19,0.52
0.373,0.06,0.00,-0.20,0.20
0.383,-0.27,-0.12,-0.11,0.31
0.394,-0.38,-0.12,0.17,0.43
0.404,-0.35,0.35,0.24,0.55
0.414,-0.31,0.40,-0.07,0.51
0.424,-0.03,-0.05,-0.38,0.39
0.434,0.16,-0.48,0.10,0.51
0.444,0.11,-0.31,-0.35,0.48
0.454,0.01,-0.15,-0.10,0.18
0.464,0.22,-0.14,-0.09,0.27
0.474,0.06,0.07,-0.05,0.11
0.484,0.41,0.26,0.08,0.49
0.494,0.36,0.40,-0.19,0.57
0.504,0.07,-0.00,-0.11,0.13
0.514,-0.23,-0.23,-0.06,0.33
0.525,-0.37,-0.24,0.31,0.54
0.535,-0.43,0.43,-0.08,0.61
0.545,-0.33,0.39,0.03,0.51
0.555,-0.08,-0.09,-0.24,0.27
0.565,0.04,-0.35,-0.21,0.41
0.575,0.21,-0.35,-0.06,0.41
0.585,0.22,-0.13,-0.27,0.37
0.595,0.11,-0.20,0.03,0.23
0.605,0.20,0.02,-0.22,0.30
0.615,0.34,0.29,0.22,0.50
0.625,0.35,0.31,-0.23,0.53
0.635,-0.05,0.16,-0.15,0.23
0.645,-0.32,-0.07,-0.01,0.33
0.656,-0.41,-0.06,0.32,0.52
0.666,-0.50,0.28,-0.03,0.58
0.676,-0.36,0.47,-0.28,0.65
0.686,0.38,-0.24,0.07,0.45
0.696,0.11,-0.60,-0.27,0.67
0.706,0.16,-0.40,-0.23,0.48
0.716,0.05,-0.02,0.01,0.05
0.726,0.04,0.04,-0.25,0.25
0.737,0.17,0.14,0.05,0.23
0.746,0.35,0.21,0.13,0.43
0.757,0.31,0.30,-0.47,0.64
0.767,0.01,0.21,0.18,0.27
0.777,-0.29,-0.20,0.01,0.36
0.787,-0.42,-0.08,0.12,0.45
0.797,-0.52,0.29,0.08,0.60
0.807,-0.26,0.31,-0.30,0.50
0.817,0.06,-0.21,0.02,0.22
0.827,0.21,-0.52,-0.35,0.66
0.837,0.21,-0.40,-0.12,0.47
0.847,0.19,-0.08,-0.06,0.21
0.857,-0.01,0.10,-0.21,0.23
0.867,0.25,0.06,0.13,0.29
0.878,0.33,0.29,-0.03,0.44
0.888,0.25,0.18,-0.20,0.37
0.898,-0.03,0.25,-0.14,0.28
0.908,-0.39,-0.17,0.23,0.48
0.918,-0.23,-0.15,0.12,0.30
0.928,-0.50,0.22,-0.01,0.55
0.938,-0.20,0.29,-0.24,0.43
0.948,0.14,-0.07,-0.05,0.16
0.958,0.17,-0.46,-0.25,0.55
0.968,0.12,-0.41,-0.20,0.47
0.978,0.14,-0.13,-0.10,0.22
0.989,0.08,0.14,-0.08,0.18
0.999,0.31,0.06,0.13,0.34
1.009,0.32,0.19,-0.19,0.42
1.019,0.30,0.22,-0.25,0.45
1.029,-0.16,0.08,0.11,0.21
1.039,-0.36,-0.05,0.04,0.36
1.049,-0.35,-0.18,0.27,0.48
1.059,-0.51,0.32,-0.28,0.66
1.069,-0.11,0.25,0.08,0.29
1.079,0.03,-0.05,-0.31,0.31
1.089,0.22,-0.48,-0.17,0.56
1.099,0.15,-0.38,-0.13,0.43
1.110,0.32,-0.13,-0.11,0.36
1.120,0.11,0.15,0.03,0.19
1.129,0.28,0.19,-0.17,0.38
1.140,0.31,0.04,0.02,0.32
1.150,0.00,0.14,-0.21,0.26
1.160,-0.10,0.01,-0.21,0.23
1.170,-0.29,-0.01,0.19,0.35
1.180,-0.37,0.01,0.32,0.49
1.190,-0.34,0.30,-0.33,0.56
1.200,-0.11,0.21,0.01,0.24
1.210,0.06,-0.09,-0.15,0.19
1.221,-0.06,-0.32,-0.26,0.42
1.231,0.23,-0.44,-0.07,0.50
1.241,0.15,-0.17,-0.05,0.23
1.251,0.34,0.16,-0.23,0.44
1.261,0.27,0.38,0.30,0.55
1.271,0.41,0.16,-0.49,0.65
1.281,-0.04,-0.04,0.17,0.18
1.291,-0.13,0.01,-0.21,0.24
1.301,-0.22,-0.18,0.17,0.33
1.311,-0.41,0.20,0.09,0.47
1.321,-0.43,0.28,0.06,0.52
1.331,-0.15,0.16,-0.24,0.32
1.342,-0.01,-0.06,-0.21,0.21
1.351,0.16,-0.24,-0.11,0.31
1.362,0.25,-0.43,-0.10,0.51
1.372,0.16,-0.26,-0.21,0.37
1.382,0.14,0.02,0.06,0.16
1.392,0.33,0.26,-0.09,0.43
1.402,0.30,0.33,-0.05,0.45
1.412,0.08,0.02,-0.12,0.14
1.422,-0.26,-0.12,-0.22,0.36
1.432,-0.23,-0.10,0.22,0.34
1.442,-0.30,0.28,0.30,0.51
1.452,-0.37,0.36,-0.14,0.54
1.462,-0.10,-0.01,-0.24,0.26
1.473,0.01,-0.34,0.00,0.34
1.483,0.13,-0.24,-0.28,0.39
1.493,0.06,-0.10,-0.08,0.13
1.503,0.22,-0.24,-0.06,0.33
1.513,0.08,0.02,-0.18,0.20
1.523,0.37,0.23,0.16,0.47
1.533,0.29,0.32,-0.10,0.44
1.543,0.19,-0.04,-0.24,0.31
1.553,-0.14,-0.25,0.01,0.29
1.563,-0.27,-0.17,-0.00,0.31
1.573,-0.37,0.25,0.35,0.57
1.584,-0.38,0.61,-0.17,0.74
1.594,-0.09,0.08,-0.10,0.16
1.604,-0.07,-0.28,-0.21,0.35
1.614,0.02,-0.36,0.32,0.49
1.624,-0.13,0.39,-0.86,0.95
1.634,0.84,-0.59,-0.29,1.07
1.644,0.02,-0.26,0.46,0.53
1.654,0.51,0.16,-0.06,0.54
1.664,0.12,0.24,-0.20,0.34
1.674,0.03,0.20,-0.07,0.22
1.685,-0.12,-0.14,-0.14,0.23
1.694,-0.44,-0.15,0.05,0.47
1.705,-0.28,0.12,0.24,0.38
1.715,-0.33,0.51,-0.07,0.61
1.725,-0.05,0.23,-0.14,0.28
1.735,-0.02,-0.31,-0.18,0.36
1.745,0.09,-0.46,-0.21,0.51
1.755,0.17,-0.27,-0.09,0.33
1.765,0.02,0.13,-0.25,0.28
1.775,0.29,-0.08,0.07,0.31
1.785,0.22,0.08,0.03,0.24
1.795,0.32,0.17,-0.09,0.37
1.805,0.25,0.23,-0.25,0.42
1.815,-0.22,-0.02,0.09,0.24
1.826,-0.17,-0.32,-0.01,0.36
1.836,-0.46,0.06,0.30,0.55
1.846,-0.40,0.53,-0.15,0.68
1.856,-0.19,0.38,-0.10,0.43
1.866,0.09,-0.32,-0.10,0.35
1.876,0.08,-0.47,-0.34,0.59
1.886,0.23,-0.29,0.04,0.37
1.896,0.18,-0.04,-0.21,0.27
1.906,0.09,0.07,-0.14,0.18
1.916,0.34,0.07,0.25,0.43
1.926,0.32,0.15,-0.23,0.42
1.937,0.13,0.12,-0.16,0.23
1.947,-0.08,0.09,-0.06,0.14
1.957,-0.34,-0.29,0.16,0.47
1.967,-0.37,0.00,0.10,0.38
1.977,-0.55,0.52,0.11,0.77
1.987,0.06,0.36,-0.31,0.48
1.997,0.04,-0.31,0.06,0.32
2.007,0.18,-0.59,-0.39,0.73
2.017,0.07,-0.41,-0.02,0.41
2.027,0.08,0.02,-0.13,0.16
2.037,0.19,0.26,-0.08,0.34
2.047,0.29,0.04,0.26,0.39
2.058,0.38,0.17,-0.41,0.58
2.068,0.25,0.10,0.05,0.27
2.078,-0.06,0.02,-0.13,0.14
2.088,-0.33,-0.22,0.21,0.44
2.098,-0.56,0.07,0.21,0.60
2.108,-0.51,0.38,-0.21,0.67
2.118,-0.10,0.17,-0.12,0.23
2.128,0.15,-0.18,-0.11,0.26
2.138,0.21,-0.50,-0.19,0.58
2.148,0.23,-0.31,-0.23,0.45
2.158,0.15,-0.10,0.02,0.18
2.169,0.21,0.24,-0.19,0.37
2.179,0.29,0.27,0.24,0.46
2.189,0.33,0.10,-0.20,0.40
2.199,-0.03,0.05,-0.17,0.18
2.209,-0.16,-0.12,-0.07,0.21
2.219,-0.29,-0.09,0.24,0.39
2.229,-0.45,0.08,0.25,0.52
2.239,-0.33,0.42,-0.34,0.63
2.249,-0.06,0.10,0.03,0.13
2.259,0.19,-0.35,-0.14,0.42
2.270,0.08,-0.40,-0.30,0.51
2.279,0.21,-0.31,-0.04,0.38
2.290,0.13,-0.07,-0.03,0.15
2.300,0.18,0.25,-0.13,0.33
2.310,0.31,0.35,0.15,0.50
2.320,0.35,0.11,-0.26,0.45
2.330,-0.04,0.03,-0.13,0.14
2.340,-0.15,-0.16,0.10,0.24
2.350,-0.40,-0.02,0.12,0.42
2.360,-0.49,0.26,0.21,0.59
2.370,-0.21,0.27,-0.33,0.48
2.380,-0.03,-0.10,-0.12,0.16
2.391,0.19,-0.28,-0.08,0.34
2.401,0.17,-0.25,-0.22,0.38
2.411,0.27,-0.34,-0.08,0.44
2.421,0.14,-0.09,-0.23,0.28
2.431,0.22,0.19,0.17,0.34
2.441,0.37,0.37,-0.12,0.53
2.451,0.11,0.10,-0.13,0.20
2.461,-0.08,-0.01,-0.06,0.10
2.471,-0.32,-0.07,-0.02,0.33
2.481,-0.24,0.09,0.36,0.44
2.491,-0.47,0.39,0.07,0.62
2.501,-0.08,0.01,-0.28,0.29
2.511,-0.01,-0.32,-0.07,0.32
2.522,0.29,-0.36,-0.18,0.50
2.532,0.05,-0.10,-0.16,0.20
2.542,0.15,-0.21,-0.08,0.27
2.552,0.09,-0.07,-0.12,0.16
2.562,0.28,0.24,0.09,0.38
2.572,0.47,0.36,-0.05,0.60
2.582,0.11,0.16,-0.19,0.27
2.592,-0.18,0.03,-0.13,0.22
2.602,-0.28,-0.15,0.33,0.46
2.612,-0.45,0.12,0.13,0.48
2.623,-0.50,0.39,-0.15,0.65
2.632,0.14,-0.15,-0.09,0.23
2.643,-0.01,-0.34,-0.28,0.44
2.653,0.23,-0.28,-0.13,0.39
2.663,0.17,-0.08,-0.13,0.23
2.673,0.10,-0.10,-0.17,0.23
2.683,0.20,-0.10,-0.02,0.22
2.693,0.30,0.10,0.14,0.34
2.703,0.27,0.37,-0.30,0.55
2.713,0.10,0.26,0.09,0.29
2.723,-0.20,-0.04,-0.14,0.24
2.733,-0.43,-0.11,0.15,0.47
2.744,-0.36,0.14,0.23,0.45
2.754,-0.31,0.42,-0.24,0.57
2.764,0.07,-0.13,-0.03,0.16
2.774,0.08,-0.40,-0.25,0.48
2.784,0.14,-0.35,-0.09,0.39
2.794,0.11,-0.21,-0.11,0.26
2.804,0.02,0.02,-0.26,0.26
2.814,0.27,0.03,0.05,0.28
2.824,0.35,0.17,0.15,0.42
2.834,0.25,0.22,-0.30,0.45
2.844,0.06,0.20,-0.09,0.22
2.854,-0.23,-0.05,0.06,0.24
2.864,-0.46,-0.06,0.14,0.48
2.875,-0.47,0.24,0.13,0.54
2.885,-0.29,0.38,-0.37,0.61
2.895,0.08,-0.06,0.05,0.12
2.905,0.19,-0.43,-0.22,0.52
2.915,0.19,-0.43,-0.25,0.53
2.925,0.15,-0.16,0.01,0.22
2.935,0.09,0.09,-0.13,0.18
2.945,0.24,-0.05,-0.10,0.26
2.955,0.40,0.15,0.26,0.50
2.965,0.19,0.32,-0.44,0.57
2.976,0.12,0.18,-0.16,0.27
2.985,-0.39,-0.13,0.58,0.71
2.996,-0.51,0.00,-0.32,0.60
3.006,-0.14,-0.05,0.29,0.33
3.016,-0.17,0.37,-0.30,0.51
3.026,-0.11,0.12,0.03,0.16
3.036,0.35,-0.47,-0.28,0.65
3.046,-0.02,-0.43,-0.17,0.46
3.056,0.15,-0.16,-0.13,0.26
3.066,0.09,0.02,0.10,0.13
3.076,0.23,0.18,-0.27,0.40
3.086,0.35,0.08,0.37,0.51
3.096,0.29,0.23,-0.48,0.61
3.107,-0.10,0.14,-0.11,0.21
3.117,-0.16,-0.05,0.15,0.22
3.127,-0.40,-0.23,0.37,0.59
3.137,-0.52,0.32,-0.30,0.68
3.147,-0.13,0.42,0.00,0.44
3.157,0.10,0.06,-0.02,0.12
3.167,0.10,-0.50,-0.26,0.57
3.177,0.20,-0.54,-0.19,0.61
3.187,0.20,-0.20,-0.01,0.28
3.197,0.25,0.17,-0.16,0.35
3.207,0.22,0.23,0.11,0.34
3.217,0.30,0.08,-0.08,0.32
3.228,0.12,0.09,-0.24,0.28
3.238,-0.08,-0.00,-0.04,0.09
3.248,-0.21,0.00,-0.04,0.22
3.258,-0.38,-0.03,0.37,0.54
3.268,-0.27,0.17,-0.11,0.34
3.278,-0.23,0.31,-0.16,0.42
3.288,0.08,0.09,-0.06,0.14
3.298,0.06,-0.26,-0.12,0.30
3.308,0.07,-0.44,-0.34,0.57
3.318,0.16,-0.29,0.04,0.33
3.328,0.26,0.15,-0.17,0.35
3.339,-0.13,0.36,0.11,0.40
3.349,1.25,0.01,0.25,1.27
3.359,-0.44,0.08,-0.16,0.47
3.369,-0.03,-0.19,-0.60,0.63
3.379,-0.27,-0.16,0.55,0.63
3.389,-0.35,0.29,0.01,0.46
3.399,-0.43,0.33,0.06,0.55
3.409,-0.08,0.20,-0.17,0.28
3.419,0.03,-0.12,0.02,0.13
3.429,0.04,-0.12,-0.31,0.33
3.439,0.22,-0.39,-0.03,0.45
3.449,0.17,-0.37,-0.18,0.44
3.460,0.19,-0.03,-0.05,0.20
3.470,0.31,0.26,0.05,0.41
3.480,0.29,0.34,-0.11,0.46
3.490,0.12,-0.05,-0.05,0.15
3.500,-0.10,-0.10,-0.19,0.23
3.510,-0.29,-0.07,0.06,0.31
3.520,-0.28,0.20,0.28,0.44
3.530,-0.33,0.38,-0.01,0.50
3.540,-0.08,0.14,-0.10,0.19
3.550,0.02,-0.15,-0.16,0.22
3.560,0.19,-0.33,-0.08,0.39
3.571,0.10,-0.14,-0.25,0.30
3.580,0.13,-0.22,-0.01,0.26
3.591,0.12,-0.14,-0.12,0.22
3.601,0.33,0.13,0.14,0.39
3.611,0.35,0.36,-0.16,0.52
3.621,0.28,0.14,-0.07,0.32
3.631,-0.12,-0.19,-0.04,0.23
3.641,-0.34,-0.28,-0.16,0.47
3.651,-0.36,0.07,0.43,0.57
3.662,-0.30,0.59,-0.06,0.67
3.671,-0.25,0.22,-0.04,0.33
3.682,0.03,-0.12,-0.38,0.40
3.692,0.15,-0.38,0.08,0.41
3.702,0.26,-0.17,-0.34,0.45
3.712,-0.04,-0.15,0.02,0.16
3.722,0.25,-0.28,-0.20,0.43
3.732,0.24,0.03,0.06,0.25
3.742,0.43,0.25,-0.00,0.50
3.752,0.27,0.16,-0.26,0.41
3.762,-0.17,0.08,-0.06,0.19
3.772,-0.50,0.18,0.05,0.53
3.782,-0.42,0.04,0.30,0.52
3.792,-0.29,0.23,-0.04,0.37
3.803,-0.05,0.19,-0.17,0.26
3.813,0.20,-0.39,-0.03,0.44
3.823,-0.00,-0.32,-0.35,0.47
3.833,0.12,-0.19,0.01,0.23
3.843,0.11,-0.03,-0.11,0.16
3.853,0.08,-0.06,-0.19,0.22
3.863,0.37,0.04,0.15,0.41
3.873,0.33,0.18,-0.02,0.37
3.883,0.25,0.19,-0.30,0.43
3.893,-0.10,0.14,0.04,0.17
3.903,-0.36,-0.14,0.03,0.39
3.913,-0.30,-0.11,0.23,0.39
3.924,-0.44,0.31,0.12,0.55
3.933,-0.12,0.47,-0.30,0.57
3.944,0.11,-0.16,0.09,0.21
3.954,0.10,-0.44,-0.27,0.53
3.964,0.09,-0.27,-0.20,0.35
3.974,0.22,-0.04,0.01,0.22
3.984,0.12,-0.07,-0.13,0.19
3.994,0.28,-0.00,0.08,0.29
4.004,0.32,0.23,-0.01,0.39
4.014,0.23,0.17,-0.23,0.37
4.024,-0.10,0.20,-0.03,0.23
4.034,-0.23,-0.15,0.02,0.28
4.045,-0.43,-0.14,0.24,0.51
4.055,-0.43,0.29,0.08,0.52
4.065,-0.10,0.32,-0.31,0.46
4.075,0.08,-0.07,-0.03,0.11
4.085,0.29,-0.52,-0.13,0.61
4.095,0.05,-0.42,-0.17,0.45
4.105,0.11,-0.09,-0.18,0.23
4.115,0.13,0.14,0.02,0.19
4.125,0.37,0.07,0.04,0.38
4.135,0.33,0.12,-0.09,0.36
4.145,0.25,0.20,-0.24,0.40
4.156,-0.07,0.09,-0.03,0.12
4.166,-0.24,-0.12,0.11,0.29
4.176,-0.44,-0.14,0.27,0.54
4.186,-0.52,0.35,-0.12,0.64
4.196,-0.07,0.21,-0.11,0.25
4.206,0.03,-0.03,-0.15,0.15
4.216,0.21,-0.40,-0.13,0.47
4.226,0.17,-0.39,-0.21,0.48
4.236,0.16,-0.11,-0.11,0.22
4.246,0.24,0.09,-0.04,0.26
4.256,0.32,0.17,0.15,0.39
4.266,0.36,0.12,-0.17,0.41
4.277,0.02,0.11,-0.06,0.13
4.287,-0.13,0.01,-0.22,0.26
4.297,-0.42,0.06,0.24,0.49
4.307,-0.22,-0.08,0.34,0.41
4.317,-0.47,0.32,-0.31,0.65
4.327,-0.03,0.09,0.03,0.10
4.337,0.10,-0.16,-0.16,0.25
4.347,0.13,-0.35,-0.20,0.42
4.357,0.28,-0.38,-0.13,0.49
4.367,0.02,-0.07,-0.15,0.17
4.377,0.28,0.20,-0.02,0.35
4.388,0.33,0.30,0.13,0.46
4.398,0.35,0.08,-0.22,0.42
4.408,0.04,0.10,-0.13,0.17
4.418,-0.14,-0.12,0.07,0.20
4.428,-0.38,-0.07,0.11,0.41
4.438,-0.43,0.17,0.28,0.54
4.448,-0.33,0.35,-0.29,0.56
4.458,-0.02,-0.02,-0.02,0.03
4.468,0.07,-0.24,-0.20,0.32
4.478,0.12,-0.25,-0.22,0.36
4.488,0.31,-0.31,-0.06,0.44
4.498,0.13,-0.12,-0.10,0.21
4.509,0.34,0.09,-0.00,0.35
4.519,0.38,0.33,0.12,0.51
4.529,0.09,0.20,-0.31,0.38
4.539,-0.02,-0.00,-0.21,0.21
4.549,-0.22,-0.10,0.20,0.31
4.559,-0.34,-0.02,0.13,0.37
4.569,-0.46,0.40,0.13,0.62
4.579,-0.10,0.19,-0.11,0.24
4.589,-0.02,-0.23,-0.25,0.34
4.599,0.17,-0.38,-0.06,0.42
4.609,0.15,-0.14,-0.17,0.26
4.620,0.10,-0.16,-0.19,0.27
4.630,0.09,-0.16,-0.02,0.18
4.640,0.33,0.13,0.02,0.36
4.650,0.41,0.40,0.04,0.58
4.660,0.24,0.26,-0.20,0.41
4.670,-0.09,-0.14,-0.03,0.17
4.680,-0.30,-0.15,-0.03,0.33
4.690,-0.37,-0.04,0.51,0.63
4.700,-0.53,0.55,-0.34,0.84
4.710,-0.05,0.11,0.00,0.13
4.720,0.00,-0.31,-0.08,0.32
4.731,0.16,-0.40,-0.33,0.54
4.741,0.18,-0.19,-0.01,0.26
4.750,0.15,-0.09,-0.18,0.25
4.761,0.15,-0.13,-0.07,0.21
4.771,0.37,0.12,0.07,0.39
4.781,0.28,0.32,-0.06,0.43
4.791,0.17,0.31,-0.17,0.39
4.801,-0.13,-0.10,0.06,0.17
4.811,-0.32,-0.23,0.00,0.39
4.821,-0.44,0.12,0.27,0.53
4.831,-0.40,0.60,-0.22,0.76
4.841,0.02,0.11,0.07,0.13
4.852,0.11,-0.43,-0.29,0.53
4.862,0.16,-0.52,-0.17,0.57
4.872,0.12,-0.16,-0.14,0.24
4.882,0.01,0.03,-0.02,0.03
4.892,0.27,-0.07,-0.12,0.30
4.902,0.26,0.16,0.13,0.33
4.912,0.51,0.23,-0.27,0.62
4.922,0.14,0.31,0.04,0.35
4.932,-0.18,-0.03,-0.12,0.22
4.942,-0.40,-0.24,0.18,0.50
4.952,-0.54,0.25,0.18,0.62
4.962,-0.40,0.49,-0.19,0.66
4.973,-0.03,0.16,-0.09,0.18
4.983,0.21,-0.45,0.01,0.49
4.993,0.13,-0.51,-0.44,0.69
5.003,0.22,-0.28,0.02,0.35
5.013,0.14,0.08,-0.12,0.20
5.023,0.16,0.07,-0.16,0.24
5.033,0.42,0.02,0.29,0.51
5.043,0.31,0.18,-0.27,0.45
5.053,0.15,0.23,-0.28,0.39
5.063,-0.16,0.00,0.24,0.29
5.073,-0.45,-0.24,0.17,0.53
5.083,-0.42,0.20,-0.07,0.47
5.094,-0.24,0.41,0.04,0.48
5.104,0.00,0.15,-0.11,0.19
5.114,0.02,-0.34,-0.22,0.41
5.124,0.20,-0.54,-0.18,0.61
5.134,0.10,-0.27,-0.10,0.31
5.144,0.07,0.02,-0.15,0.17
5.154,0.25,0.20,-0.01,0.32
5.164,0.49,0.10,0.10,0.51
5.174,0.31,0.15,-0.26,0.43
5.184,0.15,0.07,-0.19,0.25
5.194,-0.18,-0.01,0.08,0.20
5.204,-0.41,-0.12,0.21,0.48
5.215,-0.53,0.19,0.01,0.56
5.225,-0.28,0.37,-0.10,0.48
5.235,0.04,0.18,-0.13,0.23
5.245,0.09,-0.24,-0.12,0.29
5.255,0.22,-0.52,-0.21,0.60
5.265,0.06,-0.33,-0.15,0.37
5.275,0.24,0.04,-0.12,0.27
5.285,0.30,0.29,0.15,0.44
5.295,0.45,0.11,-0.20,0.50
5.305,0.17,0.11,-0.11,0.24
5.315,0.06,0.05,-0.05,0.10
5.326,-0.31,-0.03,-0.11,0.33
5.336,-0.33,-0.14,0.29,0.46
5.346,-0.33,0.11,0.12,0.37
5.356,-0.27,0.43,-0.28,0.57
5.366,0.08,0.09,0.05,0.13
5.376,0.07,-0.10,-0.26,0.28
5.386,0.09,-0.44,-0.04,0.45
5.396,0.15,-0.36,-0.23,0.45
5.406,0.09,-0.09,-0.08,0.15
5.416,0.30,0.33,0.01,0.45
5.426,0.50,0.29,0.22,0.62
5.436,0.21,0.01,-0.47,0.51
5.446,0.02,-0.10,-0.03,0.10
5.457,-0.04,-0.20,0.00,0.21
5.467,-0.56,0.07,0.27,0.62
5.477,-0.34,0.23,0.08,0.42
5.487,-0.30,0.38,-0.22,0.53
5.497,0.13,0.13,0.03,0.19
5.507,0.22,0.06,-0.14,0.26
5.517,0.61,0.13,-0.18,0.65
5.527,0.90,0.21,0.14,0.93
5.537,0.61,0.52,-0.04,0.80
5.548,0.15,0.25,-0.05,0.29
5.558,-0.13,-0.25,0.07,0.29
5.568,0.20,-0.84,-0.30,0.91
5.578,-0.22,-0.70,0.11,0.75
5.588,-0.37,-0.15,-0.34,0.53
5.598,-0.33,0.11,0.10,0.36
5.608,-0.52,0.57,0.50,0.92
5.618,-0.55,1.03,-0.01,1.17
5.628,-0.60,0.97,-0.13,1.15
5.638,-0.76,0.88,0.25,1.18
5.648,-0.31,0.28,0.03,0.42
5.658,0.13,-0.46,-0.30,0.56
5.668,0.05,-0.57,-0.19,0.60
5.679,0.35,-0.69,-0.18,0.79
5.689,0.47,-0.55,-0.16,0.74
5.699,0.40,-0.42,0.18,0.60
5.709,0.17,-0.25,-0.27,0.41
5.719,0.22,-0.24,-0.33,0.47
5.729,0.10,-0.14,0.02,0.18
5.739,0.01,-0.14,-0.12,0.18
5.749,-0.06,-0.31,0.08,0.32
5.759,-0.35,-0.53,0.40,0.76
5.769,-0.30,-0.43,-0.68,0.86
5.779,-0.06,-0.38,-0.05,0.39
5.790,-0.09,-0.14,0.15,0.22
5.800,-0.03,-0.12,-0.43,0.45
5.810,-0.09,-0.37,-0.21,0.43
5.820,-0.08,-0.45,0.13,0.48
5.830,0.08,0.01,-0.40,0.41
5.840,0.99,0.29,-0.52,1.15
5.850,1.72,1.41,-0.37,2.25
5.860,0.59,0.80,0.60,1.16
5.870,0.03,1.07,-1.21,1.62
5.880,-0.32,0.38,0.05,0.49
5.890,-0.68,-0.53,0.67,1.09
5.901,-0.35,-0.78,-0.81,1.18
5.911,0.08,-1.02,-0.11,1.03
5.921,0.31,-0.47,0.09,0.57
5.931,0.20,0.08,-0.66,0.69
5.941,0.42,0.21,-0.32,0.57
5.951,-0.22,0.53,1.49,1.59
5.961,-0.27,1.36,0.99,1.70
5.971,-0.49,0.59,-0.50,0.92
5.981,-0.55,-0.01,-0.36,0.66
5.991,-0.52,0.16,0.62,0.82
6.001,0.04,-0.33,-0.10,0.35
6.011,0.24,-0.65,-0.18,0.72
6.021,0.08,-0.31,-0.15,0.36
6.032,0.25,-0.32,-0.01,0.40
6.042,0.07,-0.13,-0.27,0.31
6.052,0.14,0.06,-0.14,0.21
6.062,0.09,0.12,0.01,0.15
6.072,0.25,-0.01,-0.00,0.25
6.082,0.26,0.03,0.01,0.26
6.092,0.38,0.29,-0.43,0.64
6.102,-0.05,0.05,0.37,0.38
6.112,-0.17,0.07,-0.44,0.48
6.122,-0.15,-0.48,0.58,0.77
6.132,-0.42,0.22,-0.36,0.59
6.143,-0.35,0.48,0.15,0.61
6.153,0.08,0.08,-0.20,0.23
6.163,-0.01,-0.44,-0.19,0.48
6.173,0.09,-0.33,-0.24,0.42
6.183,0.21,-0.21,0.04,0.31
6.193,0.12,0.08,-0.23,0.27
6.203,0.31,0.15,0.05,0.35
6.213,0.58,-0.04,0.14,0.60
6.223,0.31,0.17,-0.28,0.45
6.233,0.01,0.01,-0.08,0.08
6.243,-0.36,-0.08,0.08,0.38
6.253,-0.47,-0.11,0.28,0.55
6.263,-0.62,0.32,0.02,0.70
6.274,-0.18,0.39,-0.23,0.48
6.284,0.05,0.04,0.01,0.07
6.294,0.31,-0.29,-0.19,0.46
6.304,0.26,-0.52,-0.15,0.60
6.314,0.16,-0.30,-0.16,0.37
6.324,0.17,0.05,-0.08,0.20
6.334,0.25,0.24,0.19,0.39
6.344,0.44,0.13,-0.11,0.47
6.354,0.09,0.11,-0.23,0.27
6.364,-0.04,-0.07,-0.05,0.09
6.375,-0.37,0.06,-0.01,0.37
6.385,-0.34,0.00,0.39,0.51
6.395,-0.38,0.24,-0.12,0.46
6.405,-0.20,0.43,-0.19,0.51
6.415,0.15,-0.15,0.04,0.21
6.425,0.10,-0.44,-0.30,0.54
6.435,0.18,-0.55,-0.17,0.61
6.445,0.04,-0.15,-0.12,0.20
6.455,0.25,0.14,-0.04,0.29
6.465,0.33,0.38,0.10,0.52
6.475,0.37,0.18,-0.11,0.43
6.485,0.26,-0.03,-0.22,0.34
6.495,-0.14,-0.04,-0.04,0.15
6.506,-0.37,-0.00,0.04,0.37
6.516,-0.38,0.09,0.40,0.56
6.526,-0.45,0.30,-0.15,0.56
6.536,-0.21,0.13,-0.26,0.36
6.546,0.19,-0.20,0.03,0.28
6.556,0.25,-0.30,-0.23,0.46
6.566,0.24,-0.38,-0.11,0.46
6.576,0.12,-0.20,-0.08,0.25
6.586,0.21,0.04,-0.06,0.22
6.596,0.35,0.26,0.19,0.47
6.606,0.38,0.36,-0.30,0.61
6.617,0.12,0.02,0.02,0.12
6.627,-0.24,-0.16,-0.05,0.30
6.637,-0.48,-0.09,0.12,0.50
6.647,-0.37,0.40,0.20,0.58
6.657,-0.25,0.29,0.09,0.39
6.667,-0.02,-0.13,-0.51,0.53
6.677,0.20,-0.47,0.15,0.53
6.687,0.24,-0.24,-0.32,0.47
6.697,0.07,-0.15,-0.08,0.18
6.707,0.15,-0.12,-0.13,0.23
6.717,0.08,0.01,-0.01,0.08
6.728,0.44,0.26,0.02,0.51
6.738,0.44,0.40,-0.12,0.60
6.748,0.09,-0.10,-0.09,0.16
6.758,-0.26,-0.22,-0.11,0.36
6.768,-0.45,-0.04,0.39,0.60
6.778,-0.48,0.51,-0.00,0.70
6.788,-0.27,0.35,-0.10,0.45
6.798,0.04,-0.18,-0.24,0.30
6.808,0.18,-0.42,-0.06,0.46
6.818,0.26,-0.24,-0.23,0.43
6.828,0.12,-0.07,-0.08,0.16
6.839,0.16,-0.20,-0.05,0.26
6.849,0.26,0.02,-0.06,0.27
6.859,0.40,0.20,0.07,0.46
6.869,0.40,0.31,-0.20,0.54
6.879,-0.13,0.06,-0.05,0.15
6.889,-0.37,-0.18,-0.03,0.41
6.899,-0.57,0.00,0.36,0.67
6.909,-0.41,0.56,-0.17,0.71
6.919,-0.10,0.30,-0.02,0.32
6.929,0.31,-0.37,-0.16,0.51
6.939,0.09,-0.44,-0.26,0.52
6.949,0.21,-0.29,-0.08,0.37
6.960,0.00,-0.03,-0.08,0.08
6.969,0.10,-0.11,-0.10,0.18
6.980,0.29,0.10,0.06,0.31
6.990,0.41,0.24,0.05,0.48
7.000,0.36,0.28,-0.36,0.58
7.010,-0.09,0.09,0.11,0.17
7.020,-0.44,-0.17,0.13,0.49
7.030,-0.52,0.04,0.10,0.53
7.040,-0.46,0.42,0.01,0.62
7.050,-0.09,0.30,-0.13,0.34
7.060,0.16,-0.32,-0.07,0.37
7.070,0.22,-0.51,-0.29,0.62
7.080,0.29,-0.28,-0.14,0.42
7.091,0.07,-0.02,0.01,0.07
7.101,0.13,0.03,-0.30,0.32
7.111,0.35,0.01,0.47,0.59
7.121,0.13,0.33,0.16,0.39
7.131,0.37,0.17,-0.82,0.91
7.141,-0.37,0.44,-0.11,0.58
7.151,-0.12,-0.08,0.67,0.68
7.161,-0.49,-0.00,-0.15,0.51
7.171,-0.29,0.06,-0.19,0.36
7.181,-0.03,0.07,0.02,0.08
7.192,0.02,-0.21,-0.05,0.22
7.201,0.42,-0.56,-0.39,0.81
7.212,0.11,-0.46,-0.06,0.48
7.222,0.09,-0.21,0.01,0.23
7.232,0.17,0.06,-0.26,0.31
7.242,0.37,0.37,0.09,0.53
7.252,0.35,0.34,0.12,0.50
7.262,0.08,0.25,-0.35,0.44
7.272,-0.18,0.10,-0.03,0.21
7.282,-0.36,-0.14,0.23,0.45
7.292,-0.30,-0.03,0.31,0.43
7.302,-0.53,0.35,-0.52,0.82
7.312,-0.06,-0.08,0.38,0.40
7.322,0.23,-0.27,-0.34,0.49
7.333,0.16,-0.46,-0.38,0.62
7.343,0.18,-0.42,0.24,0.52
7.353,0.36,-0.10,-0.56,0.67
7.363,0.12,0.21,0.43,0.50
7.373,0.24,0.46,-0.13,0.54
7.383,0.35,0.16,-0.24,0.45
7.393,-0.05,0.20,0.06,0.22
7.403,-0.11,-0.06,-0.13,0.18
7.413,-0.28,-0.18,0.09,0.34
7.423,-0.21,0.14,0.48,0.54
7.434,0.47,0.77,-0.35,0.97
7.444,-0.02,0.62,0.89,1.08
7.454,-0.41,0.47,0.83,1.04
7.464,0.03,-0.01,-0.30,0.31
7.474,0.24,-0.40,-0.54,0.72
7.484,0.65,-0.38,-0.68,1.01
7.494,0.88,-0.72,0.28,1.17
7.504,0.36,0.53,-0.45,0.79
7.514,0.66,0.73,-0.86,1.31
7.524,0.21,0.02,1.40,1.41
7.534,-0.28,0.32,0.06,0.43
7.544,-1.06,0.37,-0.13,1.13
7.555,-0.79,-0.19,0.55,0.98
7.565,-0.40,-0.35,-0.46,0.70
7.575,-0.33,-0.61,-0.45,0.83
7.585,-0.05,-1.00,-0.31,1.05
7.595,0.31,-1.25,-0.73,1.48
7.605,0.12,-0.82,-0.54,0.99
7.615,-0.03,-0.20,0.05,0.21
7.625,0.25,0.62,0.60,0.90
7.635,0.49,0.87,-1.91,2.15
7.645,-0.13,1.01,-2.45,2.65
7.655,0.25,2.30,-2.29,3.25
7.665,-0.97,2.82,-2.46,3.87
7.676,-0.40,-2.19,6.44,6.82
7.686,0.13,-0.64,4.38,4.43
7.696,-0.91,0.93,-3.32,3.57
7.706,1.59,-1.52,1.09,2.45
7.716,0.40,-1.88,-0.27,1.94
7.726,-0.20,-1.29,-0.84,1.55
7.736,-0.15,-0.36,0.85,0.94
7.746,-0.62,0.22,-0.55,0.86
7.756,-0.10,0.21,0.03,0.24
7.766,0.83,0.51,-0.36,1.04
7.776,0.71,0.02,0.23,0.74
7.787,0.18,0.17,-0.30,0.39
7.797,-0.38,-0.09,0.18,0.43
7.807,-0.89,0.16,-0.00,0.91
7.817,-0.36,0.32,0.21,0.52
7.827,0.07,0.24,0.03,0.25
7.837,0.13,-0.19,-0.18,0.29
7.847,0.10,-0.38,-0.36,0.54
7.857,0.10,-0.11,0.14,0.20
7.867,0.04,0.03,-0.15,0.16
7.877,0.09,-0.29,-0.03,0.30
7.887,0.35,-0.14,-0.24,0.45
7.898,0.60,0.27,-0.34,0.75
7.908,0.55,0.00,0.27,0.62
7.918,0.07,-0.01,-0.18,0.19
7.928,-0.56,-0.12,-0.00,0.57
7.938,-0.84,0.27,0.14,0.89
7.948,-0.64,0.84,0.08,1.06
7.958,-0.04,0.54,0.07,0.54
7.968,0.36,-0.44,-0.10,0.57
7.978,0.46,-0.81,-0.47,1.05
7.988,0.19,-0.50,0.00,0.54
7.998,-0.04,-0.04,-0.03,0.06
8.009,-0.22,0.02,0.16,0.27
8.019,0.28,-0.10,-0.67,0.73
8.029,0.44,0.23,0.02,0.50
8.039,0.80,0.00,0.11,0.80
8.049,0.22,0.17,-0.11,0.30
8.059,-0.49,0.06,-0.09,0.50
8.069,-0.71,0.19,0.19,0.76
8.079,-0.85,0.75,0.01,1.13
8.089,-0.27,0.54,-0.01,0.60
8.099,0.40,-0.38,-0.03,0.55
8.109,0.55,-0.91,-0.38,1.13
8.119,0.23,-0.55,-0.09,0.60
8.129,0.03,-0.08,-0.02,0.09
8.140,-0.21,0.10,0.15,0.27
8.150,0.25,0.08,-0.58,0.64
8.160,0.61,0.16,-0.13,0.64
8.170,0.57,-0.12,0.33,0.67
8.180,0.07,0.24,-0.39,0.46
8.190,-0.37,-0.03,0.12,0.39
8.200,-0.81,0.21,0.25,0.87
8.210,-0.68,0.70,-0.15,0.99
8.220,-0.23,0.61,0.11,0.66
8.230,0.28,-0.20,-0.05,0.34
8.241,0.52,-0.98,-0.30,1.15
8.251,0.30,-0.84,-0.29,0.94
8.261,-0.02,-0.28,0.20,0.35
8.270,-0.17,0.07,0.10,0.21
8.281,0.17,0.33,-0.78,0.87
8.291,0.63,0.25,0.05,0.68
8.301,0.68,-0.12,0.31,0.76
8.311,-0.00,0.26,-0.33,0.42
8.321,-0.48,0.04,0.11,0.50
8.331,-0.82,0.37,0.21,0.93
8.341,-0.74,0.64,-0.03,0.98
8.351,-0.03,-0.06,0.17,0.18
8.361,0.45,-0.52,-0.35,0.77
8.371,0.39,-0.47,-0.23,0.65
8.382,0.33,-0.45,0.05,0.56
8.392,-0.10,-0.17,-0.13,0.24
8.402,-0.05,-0.05,-0.01,0.07
8.412,0.30,0.40,-0.61,0.79
8.422,0.73,0.11,0.14,0.75
8.432,0.27,0.10,0.08,0.30
8.442,-0.09,-0.00,-0.25,0.26
8.452,-0.66,0.00,0.05,0.67
8.462,-0.67,0.50,0.34,0.90
8.472,-0.50,0.66,-0.14,0.84
8.483,0.06,-0.07,0.12,0.15
8.493,0.50,-0.67,-0.29,0.88
8.503,0.30,-0.53,-0.28,0.67
8.513,0.19,-0.36,0.08,0.42
8.523,-0.24,-0.10,-0.29,0.39
8.533,0.06,0.01,0.13,0.14
8.543,0.50,0.39,-0.24,0.68
8.553,0.60,0.07,0.09,0.61
8.563,0.33,0.13,-0.25,0.44
8.573,-0.25,0.11,0.08,0.29
8.583,-0.59,0.30,-0.09,0.67
8.593,-0.51,0.25,0.46,0.73
8.603,-0.15,-0.08,-0.03,0.17
8.613,-0.11,-0.08,-0.43,0.45
8.624,0.43,-0.40,0.11,0.59
8.634,0.07,-0.19,-0.23,0.30
8.644,0.07,-0.14,-0.18,0.24
8.654,0.14,-0.31,0.04,0.34
8.664,0.15,-0.14,-0.28,0.35
8.674,0.43,0.25,-0.03,0.50
8.684,0.45,0.27,0.23,0.58
8.694,0.10,0.20,-0.43,0.49
8.704,-0.37,0.10,-0.03,0.38
8.714,-0.62,0.39,0.16,0.75
8.725,-0.34,0.22,0.23,0.46
8.735,-0.17,-0.10,-0.04,0.20
8.745,0.28,-0.35,-0.31,0.54
8.755,0.20,-0.31,0.01,0.37
8.765,0.02,-0.14,-0.22,0.26
8.775,-0.01,0.01,-0.17,0.17
8.785,0.19,-0.25,0.07,0.32
8.795,0.21,-0.11,-0.26,0.35
8.805,0.50,0.13,0.24,0.57
8.815,0.37,0.31,-0.20,0.52
8.825,-0.01,0.11,-0.15,0.18
8.835,-0.44,0.10,0.04,0.46
8.846,-0.47,0.17,0.17,0.53
8.856,-0.18,0.15,0.14,0.28
8.866,-0.20,0.19,-0.11,0.30
8.876,0.05,-0.17,-0.26,0.31
8.886,0.11,-0.32,-0.08,0.35
8.896,0.20,-0.26,-0.14,0.36
8.906,0.01,-0.09,-0.18,0.20
8.916,0.24,-0.25,-0.11,0.37
8.926,0.26,-0.04,-0.04,0.27
8.936,0.47,0.20,0.06,0.51
8.946,0.28,0.29,-0.16,0.43
8.956,-0.11,0.15,-0.04,0.19
8.967,-0.47,0.16,-0.14,0.52
8.977,-0.57,0.08,0.43,0.71
8.987,-0.12,0.06,0.09,0.16
8.997,-0.26,0.35,-0.39,0.59
9.007,0.37,-0.24,0.12,0.46
9.017,0.15,-0.48,-0.22,0.55
9.027,0.06,-0.27,-0.31,0.42
9.037,-0.00,-0.05,0.17,0.18
9.047,0.13,-0.07,-0.37,0.40
9.057,0.32,-0.04,0.16,0.36
9.068,0.43,0.24,-0.01,0.49
9.078,0.22,0.36,-0.28,0.50
9.088,-0.10,0.29,0.01,0.31
9.098,-0.28,-0.17,0.18,0.38
9.108,-0.37,-0.13,0.16,0.42
9.118,-0.38,0.28,-0.07,0.48
9.128,-0.13,0.39,-0.11,0.43
9.138,0.08,-0.18,-0.07,0.21
9.148,0.15,-0.44,-0.32,0.56
9.158,0.17,-0.41,-0.08,0.45
9.168,0.32,-0.17,-0.08,0.37
9.178,0.11,0.03,-0.22,0.25
9.188,0.27,0.07,0.14,0.31
9.199,0.21,0.24,0.00,0.32
9.209,0.23,0.18,-0.30,0.42
9.219,-0.05,0.21,-0.07,0.23
9.229,-0.26,-0.17,0.18,0.36
9.239,-0.20,-0.14,0.13,0.28
9.249,-0.51,0.32,-0.02,0.60
9.259,-0.14,0.40,-0.12,0.44
9.269,0.07,-0.02,-0.03,0.08
9.279,0.25,-0.47,-0.24,0.58
9.289,0.12,-0.46,-0.13,0.49
9.299,0.12,-0.24,-0.04,0.27
9.310,0.18,0.08,-0.22,0.29
9.320,0.33,0.22,0.13,0.42
9.330,0.43,0.24,-0.10,0.50
9.340,0.17,0.16,-0.17,0.29
9.350,-0.13,-0.01,-0.05,0.14
9.360,-0.33,-0.15,0.16,0.40
9.370,-0.36,-0.06,0.28,0.46
9.380,-0.37,0.41,-0.24,0.60
9.390,-0.02,0.25,0.02,0.25
9.400,0.04,-0.06,-0.13,0.15
9.410,0.13,-0.43,-0.25,0.51
9.421,0.25,-0.41,-0.09,0.49
9.431,0.27,-0.24,-0.10,0.38
9.441,0.27,0.11,-0.10,0.31
9.451,0.33,0.45,-0.04,0.55
9.461,0.25,0.10,-0.05,0.27
9.471,-0.05,0.08,-0.34,0.36
9.481,-0.25,0.02,0.07,0.26
9.491,-0.08,-0.19,0.10,0.23
9.501,-0.18,-0.10,0.13,0.24
9.511,-0.33,0.36,-0.01,0.49
9.521,-0.16,0.34,-0.15,0.41
9.531,-0.00,-0.04,-0.06,0.07
9.541,0.12,-0.30,-0.24,0.40
9.552,0.22,-0.46,-0.11,0.52
9.562,0.16,-0.31,-0.03,0.35
9.572,0.11,0.05,-0.02,0.13
9.582,0.51,0.56,-0.52,0.91
9.592,0.32,0.11,0.53,0.63
9.602,0.10,0.20,-0.62,0.66
9.612,-0.26,-0.20,0.28,0.44
9.622,-0.35,-0.05,-0.07,0.36
9.632,-0.40,0.09,0.35,0.54
9.642,-0.09,0.13,-0.10,0.19
9.652,-0.05,0.19,-0.14,0.24
9.663,0.05,0.03,-0.11,0.13
9.673,0.08,-0.14,-0.13,0.21
9.683,0.18,-0.47,-0.08,0.51
9.693,0.10,-0.41,0.14,0.45
9.703,0.29,0.03,-0.26,0.39
9.713,0.51,0.47,-0.45,0.83
9.723,0.43,0.10,0.40,0.59
9.733,-0.06,0.11,-0.24,0.27
9.743,-0.43,-0.09,-0.08,0.44
9.753,-0.54,0.12,0.03,0.55
9.763,-0.22,0.26,0.37,0.50
9.774,0.09,0.09,-0.09,0.15
9.784,0.09,-0.04,-0.24,0.27
9.794,0.03,-0.23,-0.00,0.23
9.804,0.00,-0.16,-0.23,0.28
9.814,0.01,-0.05,-0.08,0.10
9.824,0.11,-0.36,0.26,0.46
9.834,0.18,-0.19,-0.49,0.55
9.844,0.63,0.35,-0.26,0.76
9.854,0.56,0.19,0.13,0.61
9.864,0.11,0.04,0.07,0.14
9.874,-0.21,-0.10,-0.15,0.28
9.884,-0.83,0.22,0.02,0.86
9.895,-0.43,0.48,0.29,0.71
9.905,-0.10,0.24,0.03,0.26
9.915,0.20,-0.23,-0.29,0.43
9.925,0.15,-0.41,-0.07,0.44
9.935,0.16,-0.31,-0.15,0.38
9.945,0.03,-0.09,-0.06,0.11
9.955,0.06,-0.15,0.04,0.17
9.965,0.13,-0.14,-0.33,0.38
9.975,0.48,0.24,-0.22,0.58
9.985,0.61,0.31,-0.17,0.71
9.995,0.28,-0.05,0.44,0.53
10.006,-0.32,-0.04,-0.40,0.52
10.016,-0.92,0.10,0.22,0.95
10.026,-0.58,0.68,0.16,0.91
10.036,-0.18,0.42,0.13,0.47
10.046,0.42,-0.29,-0.15,0.54
10.056,0.40,-0.67,-0.20,0.80
10.066,0.13,-0.42,-0.21,0.48
10.076,-0.08,-0.11,-0.01,0.13
10.086,-0.13,-0.05,0.08,0.16
10.096,0.01,-0.06,-0.38,0.38
10.106,0.74,0.14,-0.29,0.81
10.116,0.64,0.08,0.24,0.69
10.127,0.23,0.06,-0.05,0.24
10.137,-0.34,0.18,-0.25,0.46
10.147,-0.79,0.19,0.42,0.92
10.157,-0.67,0.71,-0.02,0.98
10.167,-0.34,0.45,-0.09,0.57
10.177,0.45,-0.34,0.24,0.61
10.187,0.30,-0.79,-0.52,0.99
10.197,0.22,-0.55,-0.13,0.61
10.207,0.11,-0.09,0.14,0.20
10.217,-0.20,0.15,-0.19,0.31
10.228,0.13,-0.06,-0.10,0.17
10.237,0.67,0.14,-0.17,0.70
10.247,0.43,0.06,0.16,0.47
10.258,0.25,0.14,-0.30,0.41
10.268,-0.37,0.07,0.20,0.43
10.278,-0.64,0.20,-0.07,0.67
10.288,-0.67,0.55,0.24,0.90
10.298,-0.06,-0.11,0.28,0.30
10.308,0.22,-0.15,-0.65,0.70
10.318,0.30,-0.39,0.23,0.54
10.328,0.32,-0.48,-0.18,0.61
10.338,-0.19,-0.19,-0.27,0.38
10.348,0.05,0.02,-0.06,0.08
10.359,0.03,0.08,0.26,0.27
10.368,0.62,0.13,-0.72,0.96
10.379,0.43,-0.03,0.59,0.73
10.389,0.23,0.21,-0.53,0.62
10.399,-0.43,0.16,0.07,0.47
10.409,-0.48,0.32,0.16,0.60
10.419,-0.59,0.20,0.17,0.64
10.429,-0.17,-0.10,-0.01,0.20
10.439,0.09,-0.23,-0.32,0.40
10.449,0.28,-0.14,-0.05,0.32
10.459,0.30,-0.34,-0.02,0.46
10.469,0.02,-0.25,-0.36,0.44
10.480,0.16,-0.11,-0.10,0.22
10.490,0.24,0.06,0.19,0.31
10.500,0.49,0.28,-0.42,0.70
10.510,0.21,0.09,0.32,0.39
10.520,0.11,0.02,-0.24,0.26
10.530,-0.46,-0.00,-0.23,0.52
10.540,-0.48,0.40,0.36,0.72
10.550,-0.35,0.16,0.22,0.45
10.560,-0.15,0.02,-0.23,0.27
10.570,0.21,-0.16,-0.10,0.28
10.580,0.17,-0.22,-0.13,0.31
10.590,0.09,-0.29,-0.17,0.34
10.601,0.10,-0.26,-0.15,0.32
10.611,0.05,-0.11,-0.11,0.16
10.621,0.35,0.15,-0.03,0.38
10.631,0.48,0.25,0.12,0.56
10.641,0.36,0.17,-0.37,0.55
10.651,-0.03,0.01,0.07,0.08
10.661,-0.39,-0.05,-0.13,0.41
10.671,-0.61,0.26,0.52,0.85
10.681,-0.33,0.41,-0.06,0.53
10.691,-0.02,-0.22,-0.29,0.36
10.701,0.20,-0.23,-0.30,0.42
10.711,0.27,-0.21,0.11,0.36
10.722,0.18,-0.17,-0.25,0.35
10.732,0.13,-0.32,-0.06,0.35
10.742,-0.01,-0.11,-0.19,0.22
10.752,0.42,0.09,0.12,0.45
10.762,0.46,0.29,-0.11,0.56
10.772,0.19,0.08,-0.08,0.22
10.782,-0.16,0.00,-0.12,0.20
10.792,-0.59,0.25,0.09,0.64
10.802,-0.47,0.50,0.17,0.70
10.812,-0.22,0.20,0.24,0.38
10.823,0.14,-0.25,-0.35,0.45
10.833,0.14,-0.55,-0.08,0.57
10.843,0.23,-0.31,-0.21,0.44
10.853,-0.11,-0.01,-0.08,0.13
10.863,0.10,-0.11,-0.15,0.21
10.873,0.21,-0.10,-0.08,0.25
10.883,0.49,0.16,0.07,0.52
10.893,0.44,0.30,-0.08,0.54
10.903,0.16,0.11,-0.24,0.31
10.913,-0.27,-0.01,-0.02,0.27
10.923,-0.55,0.04,0.13,0.56
10.933,-0.30,0.04,0.25,0.39
10.944,-0.27,0.48,-0.29,0.62
10.954,0.09,-0.01,0.07,0.11
10.964,0.11,-0.34,-0.30,0.47
10.974,0.15,-0.41,-0.10,0.44
10.984,0.04,-0.06,-0.14,0.16
10.994,0.12,-0.08,-0.15,0.21
11.004,0.28,-0.14,-0.04,0.31
11.014,0.36,0.10,0.11,0.39
11.024,0.37,0.28,-0.23,0.51
11.034,0.04,0.14,-0.04,0.15
11.044,-0.40,0.11,-0.10,0.42
11.054,-0.41,-0.00,0.18,0.44
11.065,-0.30,0.17,0.23,0.41
11.075,-0.19,0.43,-0.18,0.50
11.085,0.09,-0.10,-0.03,0.14
11.095,0.11,-0.41,-0.32,0.53
11.105,0.20,-0.45,-0.04,0.49
11.115,0.02,-0.09,-0.14,0.16
11.125,0.05,0.06,-0.20,0.21
11.135,0.47,-0.02,-0.01,0.47
11.145,0.31,0.15,0.16,0.38
11.155,0.38,0.12,-0.35,0.53
11.165,0.01,0.19,-0.04,0.20
11.175,-0.32,0.03,-0.03,0.33
11.186,-0.49,-0.02,0.23,0.54
11.196,-0.38,0.20,0.08,0.44
11.206,-0.19,0.38,-0.32,0.53
11.216,0.16,0.01,0.04,0.17
11.226,0.25,-0.42,-0.17,0.52
11.236,0.07,-0.46,-0.30,0.55
11.246,0.19,-0.19,0.01,0.27
11.256,0.09,0.08,-0.15,0.20
11.266,0.26,-0.05,-0.01,0.27
11.276,0.44,0.21,0.05,0.49
11.286,0.19,0.23,-0.10,0.32
11.297,-0.06,0.20,-0.28,0.35
11.307,-0.37,-0.10,0.19,0.43
11.317,-0.25,-0.19,0.13,0.34
11.327,-0.32,0.22,0.00,0.39
11.337,-0.07,0.35,-0.06,0.36
11.347,-0.03,0.17,-0.18,0.25
11.357,0.20,-0.45,-0.04,0.50
11.367,0.06,-0.47,-0.25,0.54
11.377,0.14,-0.29,-0.13,0.34
11.387,0.01,0.10,-0.06,0.11
11.397,0.38,0.23,-0.02,0.44
11.408,0.43,0.13,0.18,0.48
11.418,0.33,0.22,-0.43,0.59
11.428,-0.04,0.02,0.01,0.04
11.438,-0.32,-0.06,0.03,0.33
11.448,-0.39,-0.19,0.33,0.54
11.458,-0.43,0.25,-0.16,0.52
11.468,-0.23,0.43,-0.11,0.50
11.478,0.21,0.07,-0.06,0.23
11.488,0.09,-0.29,-0.30,0.43
11.498,0.19,-0.42,-0.21,0.51
11.508,0.18,-0.29,0.08,0.35
11.518,0.24,-0.01,-0.32,0.40
11.528,0.38,0.33,0.31,0.59
11.539,0.35,0.20,-0.13,0.42
11.549,0.04,0.01,-0.32,0.33
11.559,-0.09,-0.12,0.06,0.16
11.569,-0.24,-0.09,-0.08,0.27
11.579,-0.28,-0.06,0.35,0.45
11.589,-0.28,0.28,-0.04,0.40
11.599,-0.16,0.34,-0.13,0.40
11.609,0.16,0.05,-0.08,0.19
11.619,0.08,-0.18,-0.18,0.27
11.629,0.21,-0.49,-0.11,0.55
11.639,-0.00,-0.29,-0.17,0.34
11.650,0.24,-0.01,-0.14,0.28
11.660,0.29,0.35,0.19,0.50
11.670,0.39,0.34,-0.11,0.53
11.680,0.13,0.03,-0.20,0.24
11.690,-0.02,-0.10,-0.13,0.16
11.700,-0.27,-0.19,0.06,0.33
11.710,-0.31,0.08,0.24,0.40
11.720,-0.29,0.22,0.04,0.37
11.730,-0.24,0.25,-0.17,0.38
11.740,0.10,0.04,-0.11,0.16
11.750,0.06,-0.11,-0.15,0.20
11.760,0.23,-0.33,-0.15,0.43
11.770,0.21,-0.42,-0.09,0.48
11.780,0.21,-0.09,-0.13,0.27
11.791,0.36,0.30,0.11,0.48
11.801,0.27,0.38,-0.12,0.48
11.811,0.14,0.06,-0.19,0.24
11.821,-0.12,-0.10,-0.06,0.16
11.831,-0.25,-0.17,0.01,0.30
11.841,-0.30,0.10,0.26,0.41
11.851,-0.23,0.31,0.05,0.39
11.861,-0.06,0.17,-0.24,0.30
11.872,0.02,-0.14,-0.12,0.19
11.881,0.15,-0.28,-0.11,0.33
11.892,0.04,-0.11,-0.28,0.30
11.902,0.24,-0.20,0.02,0.32
11.912,0.14,-0.14,-0.13,0.24
11.922,0.34,0.11,-0.10,0.37
11.932,0.33,0.30,0.10,0.46
11.942,0.20,0.21,-0.31,0.42
11.952,-0.09,-0.13,0.01,0.16
11.962,-0.30,-0.19,-0.15,0.38
11.972,-0.31,-0.04,0.38,0.49
11.982,-0.29,0.46,-0.01,0.54
11.992,-0.10,0.28,-0.14,0.33
12.003,0.03,-0.16,-0.16,0.23
12.013,0.15,-0.34,-0.20,0.42
12.023,0.12,-0.22,-0.14,0.28
12.033,0.13,-0.08,-0.22,0.26
12.043,0.20,-0.22,0.04,0.30
12.053,0.36,0.02,-0.17,0.39
12.063,0.37,0.26,0.11,0.47
12.073,0.31,0.10,-0.28,0.43
12.083,-0.17,0.05,-0.07,0.19
12.093,-0.45,0.09,0.09,0.47
12.103,-0.50,0.15,0.10,0.53
12.114,-0.15,0.20,0.03,0.25
12.124,0.04,0.14,-0.03,0.15
12.134,0.08,-0.27,-0.19,0.34
12.144,0.08,-0.31,-0.30,0.44
12.154,0.17,-0.26,-0.01,0.31
12.164,-0.05,0.02,-0.19,0.20
12.174,0.13,-0.09,-0.08,0.18
12.184,0.46,0.02,0.02,0.46
12.194,0.43,0.21,-0.03,0.48
12.204,0.30,0.17,-0.19,0.39
12.214,-0.14,0.05,-0.12,0.19
12.225,-0.50,0.02,-0.02,0.50
12.235,-0.43,0.05,0.29,0.52
12.245,-0.20,0.16,0.06,0.26
12.255,-0.03,0.34,-0.32,0.47
12.265,0.09,-0.12,0.04,0.16
12.275,0.21,-0.51,-0.26,0.61
12.285,-0.03,-0.30,-0.19,0.35
12.295,0.20,-0.02,-0.10,0.22
12.305,0.15,0.07,-0.11,0.20
12.315,0.41,0.01,0.12,0.42
12.325,0.28,0.16,-0.13,0.35
12.335,0.29,0.11,-0.31,0.44
12.345,-0.14,0.10,0.17,0.25
12.356,-0.37,0.09,-0.21,0.44
12.366,-0.37,0.01,0.36,0.51
12.376,-0.20,0.19,-0.03,0.28
12.386,-0.16,0.26,-0.24,0.39
12.396,0.16,-0.10,-0.04,0.20
12.406,0.27,-0.64,-0.11,0.70
12.416,-0.06,-0.38,-0.37,0.53
12.426,0.12,-0.07,-0.03,0.14
12.436,0.21,0.12,-0.09,0.26
12.446,0.36,0.11,0.00,0.38
12.456,0.42,0.06,0.07,0.43
12.466,0.21,0.07,-0.39,0.45
12.477,-0.20,0.12,0.02,0.24
12.487,-0.37,0.25,0.04,0.44
12.497,-0.47,0.08,0.24,0.53
12.507,-0.27,0.09,-0.09,0.30
12.517,0.01,-0.01,-0.11,0.11
12.527,0.13,-0.09,-0.16,0.22
12.537,0.08,-0.30,-0.15,0.35
12.547,0.20,-0.37,-0.23,0.48
12.557,0.08,-0.18,-0.01,0.20
12.568,0.33,0.07,-0.20,0.39
12.578,0.41,0.23,0.21,0.51
12.588,0.42,0.14,-0.09,0.45
12.598,0.02,0.08,-0.28,0.30
12.608,-0.27,0.04,-0.02,0.27
12.618,-0.45,0.28,0.07,0.54
12.628,-0.34,0.14,0.29,0.47
12.638,-0.13,0.08,-0.11,0.19
12.648,-0.06,-0.01,-0.15,0.16
12.658,0.26,-0.25,-0.17,0.40
12.668,0.06,-0.30,-0.14,0.34
12.678,0.16,-0.32,-0.19,0.40
12.688,0.06,-0.09,-0.14,0.18
12.698,0.30,0.12,0.01,0.32
12.708,0.40,0.29,0.08,0.50
12.719,0.44,0.12,-0.21,0.50
12.729,0.07,0.06,-0.15,0.18
12.739,-0.29,-0.09,-0.00,0.30
12.749,-0.40,0.01,0.08,0.41
12.759,-0.40,0.22,0.37,0.58
12.769,-0.27,0.36,-0.31,0.55
12.779,0.01,-0.03,-0.07,0.08
12.789,0.35,-0.28,-0.10,0.46
12.799,0.02,-0.20,-0.23,0.30
12.809,0.22,-0.35,-0.13,0.44
12.820,0.15,-0.22,-0.11,0.29
12.829,0.34,0.07,-0.07,0.36
12.840,0.42,0.33,0.16,0.56
12.850,0.33,0.22,-0.22,0.46
12.860,-0.17,0.02,-0.12,0.21
12.870,-0.43,-0.10,0.01,0.45
12.880,-0.32,0.04,0.22,0.39
12.890,-0.30,0.51,0.09,0.60
12.900,-0.08,0.16,-0.05,0.18
12.910,0.04,-0.20,-0.44,0.49
12.920,0.23,-0.42,0.09,0.49
12.930,0.15,-0.17,-0.21,0.31
12.941,0.06,-0.24,-0.19,0.31
12.951,0.18,-0.19,-0.07,0.27
12.961,0.38,0.12,0.02,0.40
12.971,0.40,0.34,-0.01,0.53
12.981,0.25,0.26,-0.21,0.42
12.991,-0.11,-0.06,-0.02,0.13
13.001,-0.42,-0.13,-0.00,0.44
13.011,-0.27,-0.04,0.41,0.49
13.021,-0.39,0.56,-0.25,0.72
13.031,0.04,0.19,0.04,0.20
13.041,-0.02,-0.23,-0.24,0.33
13.051,0.12,-0.42,-0.22,0.49
13.062,0.27,-0.28,-0.06,0.39
13.072,0.07,-0.08,-0.19,0.22
13.082,0.29,-0.15,-0.04,0.33
13.092,0.26,0.07,0.12,0.29
13.102,0.33,0.34,-0.23,0.52
13.112,0.27,0.26,0.00,0.38
13.122,-0.20,0.08,-0.15,0.26
13.132,-0.31,-0.21,-0.01,0.38
13.142,-0.45,0.02,0.42,0.61
13.152,-0.30,0.59,-0.32,0.73
13.163,-0.04,0.15,0.13,0.21
13.173,0.15,-0.28,-0.41,0.52
13.182,0.18,-0.49,-0.15,0.54
13.193,0.30,-0.30,-0.08,0.43
13.203,-0.07,-0.01,-0.21,0.22
13.213,0.17,-0.05,-0.06,0.18
13.223,0.33,0.18,0.18,0.42
13.233,0.47,0.24,-0.16,0.55
13.243,0.25,0.22,-0.16,0.37
13.253,-0.31,0.01,-0.01,0.31
13.263,-0.33,-0.21,0.17,0.42
13.273,-0.54,0.17,0.15,0.59
13.283,-0.37,0.51,-0.15,0.65
13.294,0.07,0.23,-0.05,0.24
13.304,0.29,-0.42,-0.08,0.51
13.314,0.10,-0.47,-0.41,0.63
13.324,0.22,-0.24,0.01,0.33
13.334,0.15,-0.01,-0.09,0.18
13.344,0.21,0.03,-0.19,0.28
13.354,0.32,0.08,0.37,0.50
13.364,0.36,0.21,-0.42,0.59
13.374,0.06,0.23,-0.11,0.27
13.384,-0.17,0.04,0.03,0.18
13.394,-0.40,-0.33,0.22,0.56
13.405,-0.34,0.17,-0.08,0.39
13.415,-0.16,0.40,0.01,0.43
13.425,-0.02,0.29,-0.14,0.32
13.435,0.02,-0.28,-0.05,0.28
13.445,0.16,-0.49,-0.38,0.64
13.455,0.18,-0.38,0.09,0.43
13.465,0.18,0.01,-0.31,0.36
13.475,0.18,0.16,0.09,0.26
13.485,0.50,0.08,0.13,0.53
13.495,0.29,0.21,-0.33,0.49
13.505,0.13,0.10,-0.03,0.17
13.515,-0.24,0.04,-0.07,0.26
13.526,-0.30,-0.26,0.28,0.49
13.536,-0.50,0.14,0.01,0.52
13.546,-0.29,0.40,-0.09,0.50
13.556,0.03,0.18,-0.20,0.27
13.566,0.13,-0.19,-0.17,0.29
13.576,0.23,-0.48,-0.17,0.56
13.586,0.15,-0.27,-0.06,0.31
13.596,0.30,-0.03,-0.05,0.31
13.606,0.15,0.22,0.07,0.28
13.616,0.42,0.21,-0.04,0.47
13.626,0.22,0.09,-0.27,0.36
13.637,-0.12,0.01,-0.04,0.12
13.647,-0.22,-0.14,-0.11,0.28
13.657,-0.27,-0.08,0.24,0.37
13.667,-0.27,0.11,0.23,0.37
13.677,-0.21,0.38,-0.35,0.56
13.687,0.06,0.11,0.02,0.13
13.697,0.05,-0.07,-0.21,0.23
13.707,0.12,-0.36,-0.11,0.40
13.717,0.20,-0.36,-0.13,0.43
13.727,0.17,-0.05,-0.21,0.28
13.737,0.25,0.26,0.15,0.39
13.748,0.48,0.25,-0.01,0.54
13.758,0.22,0.07,-0.12,0.26
13.768,0.02,-0.03,-0.22,0.23
13.778,-0.22,-0.20,0.00,0.30
13.788,-0.32,-0.00,0.22,0.39
13.798,-0.41,0.20,0.09,0.47
13.808,-0.14,0.25,-0.14,0.32
13.818,-0.01,0.10,-0.11,0.15
13.828,0.12,-0.06,-0.21,0.25
13.838,0.12,-0.20,-0.17,0.29
13.848,0.23,-0.42,-0.03,0.48
13.858,0.10,-0.20,-0.25,0.34
13.869,0.43,0.14,0.07,0.46
13.879,0.34,0.39,0.07,0.52
13.889,0.21,0.18,-0.37,0.46
13.899,-0.12,-0.15,0.00,0.19
13.909,-0.27,-0.19,-0.09,0.34
13.919,-0.31,0.01,0.18,0.36
13.929,-0.21,0.36,0.18,0.45
13.939,-0.15,0.25,-0.11,0.31
13.949,-0.02,-0.11,-0.27,0.29
13.959,0.13,-0.27,-0.05,0.31
13.969,0.10,-0.13,-0.16,0.23
13.979,0.09,-0.13,-0.17,0.23
13.990,0.20,-0.16,-0.07,0.27
14.000,0.28,0.11,-0.03,0.30
14.010,0.35,0.33,0.07,0.48
14.020,0.32,0.21,-0.34,0.51
14.030,0.01,-0.24,0.07,0.25
14.040,-0.25,-0.23,-0.15,0.37
14.050,-0.34,-0.09,0.18,0.39
14.060,-0.25,0.41,0.20,0.52
14.070,-0.31,0.45,-0.10,0.55
14.080,0.02,-0.09,-0.21,0.23
14.090,0.06,-0.39,-0.11,0.41
14.100,0.19,-0.23,-0.19,0.36
14.111,0.06,0.00,-0.07,0.09
14.121,0.23,-0.16,-0.06,0.29
14.131,0.25,0.00,-0.11,0.27
14.141,0.44,0.17,0.16,0.50
14.151,0.37,0.32,-0.25,0.55
14.161,-0.05,0.05,-0.09,0.12
14.171,-0.24,-0.24,-0.02,0.33
14.181,-0.49,-0.14,0.21,0.55
14.191,-0.27,0.28,0.07,0.39
14.201,-0.25,0.59,-0.13,0.65
14.211,0.13,-0.08,0.03,0.16
14.221,0.07,-0.45,-0.37,0.58
14.232,0.15,-0.38,-0.11,0.43
14.242,0.11,-0.05,-0.07,0.14
14.252,0.13,0.01,-0.17,0.21
14.262,0.33,-0.09,0.09,0.35
14.272,0.37,0.17,0.01,0.41
14.282,0.38,0.26,-0.33,0.56
14.292,0.07,0.21,0.05,0.23
14.302,-0.28,-0.21,-0.07,0.35
14.312,-0.42,-0.14,0.05,0.44
14.322,-0.40,0.16,0.37,0.57
14.332,-0.22,0.50,-0.33,0.64
14.343,0.03,0.13,-0.12,0.18
14.353,0.28,-0.49,-0.01,0.57
14.363,0.02,-0.37,-0.39,0.53
14.373,0.19,-0.15,-0.05,0.25
14.383,0.12,0.05,-0.09,0.16
14.393,0.43,-0.01,-0.05,0.43
14.403,0.36,0.21,0.11,0.43
14.413,0.27,0.14,-0.31,0.43
14.423,-0.04,0.14,-0.02,0.15
14.433,-0.26,-0.01,-0.04,0.26
14.443,-0.33,-0.22,0.14,0.42
14.454,-0.27,0.12,0.23,0.37
14.464,-0.24,0.46,-0.22,0.56
14.474,-0.05,0.16,-0.05,0.17
14.484,0.18,-0.45,-0.11,0.50
14.494,0.16,-0.53,-0.34,0.65
14.504,0.14,-0.24,-0.07,0.29
14.514,0.07,0.09,-0.09,0.15
14.524,0.29,0.19,-0.04,0.35
14.534,0.47,0.10,0.14,0.50
14.544,0.31,0.19,-0.35,0.50
14.554,-0.00,0.13,-0.09,0.15
14.564,-0.18,-0.05,0.03,0.19
14.574,-0.47,-0.19,0.31,0.60
14.585,-0.48,0.22,-0.04,0.53
14.595,-0.17,0.31,-0.10,0.36
14.605,0.07,0.04,-0.15,0.17
14.615,0.12,-0.22,-0.18,0.31
14.625,0.24,-0.50,-0.09,0.56
14.635,0.13,-0.28,-0.21,0.37
14.645,0.15,-0.01,-0.05,0.16
14.655,0.37,0.29,0.15,0.49
14.665,0.53,0.12,-0.12,0.55
14.675,0.12,0.17,-0.20,0.29
14.685,-0.05,-0.04,-0.13,0.15
14.696,-0.39,-0.03,0.06,0.40
14.706,-0.32,0.01,0.30,0.44
14.716,-0.33,0.26,-0.08,0.43
14.726,-0.13,0.31,-0.16,0.37
14.736,0.12,-0.10,-0.08,0.17
14.746,0.08,-0.31,-0.29,0.43
14.756,0.21,-0.47,-0.00,0.52
14.766,0.05,-0.29,-0.15,0.33
14.776,0.22,0.03,-0.21,0.30
14.786,0.34,0.37,0.27,0.57
14.796,0.47,0.29,-0.17,0.58
14.807,0.20,0.00,-0.23,0.30
14.817,-0.18,-0.08,0.00,0.20
14.827,-0.29,-0.15,-0.00,0.32
14.837,-0.34,0.09,0.48,0.59
14.847,-0.45,0.53,-0.23,0.73
14.857,-0.06,0.16,-0.19,0.25
14.867,0.18,-0.28,0.09,0.34
14.877,0.03,-0.26,-0.41,0.48
14.887,0.21,-0.40,-0.09,0.46
14.897,0.18,-0.24,-0.01,0.30
14.907,0.33,-0.02,-0.19,0.38
14.917,0.34,0.32,0.14,0.49
14.927,0.42,0.36,-0.14,0.57
14.938,0.00,0.01,-0.15,0.15
14.948,-0.22,-0.10,-0.10,0.26
14.958,-0.26,-0.22,0.27,0.44
14.968,-0.43,0.33,0.10,0.55
14.978,-0.36,0.52,-0.17,0.65
14.988,0.14,-0.05,-0.01,0.15
14.998,0.18,-0.51,-0.18,0.57
15.008,0.03,-0.31,-0.31,0.44
15.018,0.09,-0.11,0.05,0.15
15.028,0.16,-0.22,-0.16,0.32
15.039,0.28,-0.00,-0.12,0.30
15.049,0.43,0.36,0.18,0.59
15.059,0.42,0.37,-0.22,0.60
15.069,0.04,-0.10,-0.03,0.11
15.079,-0.27,-0.18,-0.15,0.36
15.089,-0.19,-0.22,0.37,0.47
15.099,-0.64,0.50,-0.02,0.82
15.109,-0.21,0.42,-0.14,0.49
15.119,0.06,0.01,-0.13,0.15
15.129,0.16,-0.47,-0.07,0.50
15.139,0.06,-0.37,-0.22,0.44
15.149,0.19,-0.14,-0.12,0.26
15.160,0.27,-0.19,-0.04,0.33
15.170,0.32,0.13,-0.15,0.37
15.180,0.36,0.18,0.17,0.44
15.190,0.34,0.24,-0.25,0.49
15.200,-0.09,-0.00,-0.06,0.11
15.210,-0.04,-0.31,-0.05,0.32
15.220,-0.11,-0.35,-0.25,0.44
15.230,0.03,-0.08,-0.21,0.23
15.240,0.15,-0.10,0.07,0.19
15.250,-0.02,-0.24,-0.26,0.36
15.260,0.03,-0.18,-0.24,0.30
15.270,0.09,-0.34,0.05,0.35
15.280,0.04,-0.22,-0.17,0.28
15.291,0.03,-0.24,-0.24,0.34
15.301,-0.11,0.07,-0.21,0.24
15.311,-0.21,0.15,-0.24,0.36
15.321,-0.64,-0.01,-0.04,0.65
15.331,-0.32,0.22,0.68,0.78
15.341,0.05,0.83,-0.14,0.84
15.351,-0.22,1.01,0.17,1.04
15.361,-0.34,1.08,-0.02,1.14
15.371,-0.40,0.51,0.02,0.65
15.381,0.46,-0.56,0.18,0.75
15.392,0.95,-1.19,0.18,1.53
15.402,0.30,-0.91,-0.67,1.17
15.412,0.55,-0.36,-0.15,0.68
15.422,0.28,0.39,0.50,0.69
15.432,0.44,0.84,-0.27,0.99
15.442,0.39,0.67,-0.05,0.77
15.452,-0.26,-0.11,0.17,0.32
15.462,-0.26,-0.79,-0.46,0.95
15.472,-0.41,-0.76,0.42,0.96
15.482,-0.67,0.41,0.01,0.79
15.492,-0.28,0.82,-0.10,0.87
15.502,0.27,0.43,-0.15,0.53
15.512,0.25,-0.34,-0.09,0.43
15.523,0.06,-0.73,-0.15,0.75
15.533,0.05,-0.44,-0.31,0.54
15.543,0.29,-0.03,0.07,0.30
15.553,0.30,0.36,-0.06,0.47
15.563,0.42,0.17,0.10,0.46
15.573,0.27,0.14,-0.35,0.46
15.583,-0.06,0.06,0.02,0.09
15.593,-0.15,-0.09,-0.06,0.18
15.603,-0.23,-0.16,0.29,0.41
15.613,-0.46,0.22,0.04,0.51
15.623,-0.24,0.45,-0.22,0.55
15.634,0.13,0.09,0.08,0.17
15.644,-0.02,-0.24,-0.30,0.38
15.654,0.26,-0.61,-0.10,0.67
15.664,0.08,-0.33,-0.20,0.40
15.674,0.25,0.04,-0.08,0.27
15.684,0.35,0.32,0.24,0.53
15.694,0.30,0.33,-0.17,0.48
15.704,0.27,0.04,-0.20,0.34
15.714,-0.10,-0.07,0.02,0.12
15.724,-0.08,-0.18,-0.21,0.29
15.734,-0.16,-0.12,0.34,0.39
15.745,-0.53,0.33,0.06,0.63
15.755,-0.23,0.39,-0.23,0.51
15.765,-0.02,0.07,-0.01,0.08
15.775,0.15,-0.25,-0.30,0.42
15.785,0.10,-0.40,-0.07,0.42
15.795,0.22,-0.32,-0.13,0.41
15.805,0.21,-0.02,-0.21,0.29
15.815,0.25,0.25,0.19,0.40
15.825,0.46,0.32,-0.15,0.58
15.835,0.28,0.07,-0.11,0.31
15.845,-0.09,-0.09,-0.20,0.24
15.855,-0.14,-0.25,-0.09,0.30
15.866,-0.25,-0.03,0.35,0.43
15.876,-0.50,0.38,0.06,0.63
15.886,-0.08,0.30,-0.26,0.40
15.896,-0.12,0.03,0.06,0.13
15.906,0.28,-0.24,-0.27,0.46
15.916,0.07,-0.30,-0.10,0.33
15.926,0.22,-0.34,-0.21,0.46
15.936,0.15,-0.14,-0.08,0.23
15.946,0.33,0.20,0.11,0.40
15.956,0.37,0.37,-0.07,0.53
15.966,0.19,0.22,-0.25,0.38
15.976,0.00,-0.21,0.02,0.21
15.987,-0.22,-0.23,-0.08,0.32
15.997,-0.31,0.02,0.26,0.40
16.007,-0.28,0.49,0.02,0.56
16.017,-0.16,0.30,0.05,0.35
16.027,-0.04,-0.11,-0.33,0.35
16.037,0.23,-0.44,-0.13,0.51
16.047,0.15,-0.27,-0.09,0.33
16.057,0.13,-0.03,-0.17,0.22
16.067,0.24,-0.03,0.04,0.24
16.077,0.23,0.13,-0.05,0.27
16.087,0.42,0.15,-0.06,0.45
16.097,0.17,0.24,-0.16,0.33
16.108,-0.09,-0.13,-0.15,0.22
16.118,-0.10,-0.39,-0.01,0.41
16.128,-0.37,-0.13,0.27,0.48
16.138,-0.41,0.55,0.01,0.68
16.148,-0.17,0.56,-0.10,0.60
16.158,0.09,-0.11,-0.03,0.14
16.168,0.09,-0.35,-0.41,0.55
16.178,0.23,-0.36,0.01,0.43
16.188,0.09,-0.06,-0.18,0.21
16.199,0.13,-0.20,-0.06,0.25
16.208,0.26,-0.04,-0.11,0.28
16.218,0.39,0.23,0.10,0.46
16.229,0.42,0.32,-0.24,0.59
16.239,-0.04,0.19,-0.05,0.20
16.249,-0.30,-0.20,-0.04,0.36
16.259,-0.34,-0.23,0.26,0.48
16.269,-0.34,0.31,0.06,0.46
16.279,-0.20,0.56,-0.17,0.62
16.289,0.13,-0.06,-0.05,0.15
16.299,0.08,-0.51,-0.24,0.57
16.309,0.13,-0.42,-0.21,0.49
16.319,0.14,-0.15,-0.07,0.22
16.329,0.10,0.04,-0.16,0.20
16.340,0.31,0.01,0.12,0.34
16.350,0.43,0.15,-0.07,0.47
16.360,0.30,0.25,-0.21,0.45
16.370,-0.01,0.23,-0.06,0.24
16.380,-0.23,-0.17,-0.00,0.29
16.390,-0.37,-0.23,0.22,0.48
16.400,-0.42,0.21,-0.00,0.47
16.410,-0.12,0.48,-0.19,0.53
16.420,0.04,0.19,0.15,0.24
16.430,0.11,-0.36,-0.25,0.46
16.440,0.10,-0.67,-0.14,0.69
16.450,0.14,-0.25,-0.24,0.37
16.461,0.12,0.05,0.06,0.14
16.471,0.47,0.08,0.02,0.48
16.481,0.28,0.18,0.01,0.33
16.491,0.33,0.17,-0.29,0.47
16.501,-0.06,0.20,0.00,0.20
16.511,-0.29,0.06,-0.01,0.30
16.521,-0.34,-0.19,0.33,0.51
16.532,-0.34,0.15,-0.07,0.38
16.541,-0.15,0.33,-0.05,0.36
16.551,0.08,0.08,-0.07,0.13
16.562,0.07,-0.40,-0.21,0.46
16.572,0.25,-0.53,-0.17,0.61
16.582,0.07,-0.24,-0.09,0.26
16.592,0.12,0.02,-0.20,0.24
16.602,0.24,0.21,0.22,0.39
16.612,0.49,0.05,-0.03,0.50
16.622,0.24,0.18,-0.30,0.42
16.632,0.10,0.11,0.00,0.15
16.642,-0.25,0.02,0.04,0.25
16.652,-0.35,-0.08,0.28,0.46
16.662,-0.47,0.24,-0.02,0.53
16.672,-0.20,0.20,-0.22,0.36
16.683,0.02,-0.06,-0.07,0.10
16.693,0.20,-0.26,-0.26,0.42
16.703,0.19,-0.50,-0.02,0.54
16.713,0.13,-0.21,-0.35,0.42
16.723,0.28,0.00,0.05,0.28
16.733,0.37,0.28,0.10,0.47
16.743,0.40,0.08,-0.16,0.44
16.753,0.16,0.16,-0.21,0.31
16.763,-0.16,0.08,-0.03,0.18
16.773,-0.32,0.02,0.07,0.33
16.783,-0.30,0.12,0.41,0.53
16.793,-0.44,0.33,-0.18,0.58
16.803,-0.10,0.17,-0.21,0.29
16.814,0.18,-0.31,0.06,0.36
16.824,0.11,-0.34,-0.32,0.48
16.834,0.19,-0.33,-0.10,0.39
16.844,0.09,-0.19,-0.12,0.25
16.854,0.25,-0.01,-0.10,0.27
16.864,0.38,0.24,0.22,0.50
16.874,0.41,0.22,-0.20,0.50
16.884,0.16,0.01,-0.14,0.21
16.894,-0.12,-0.07,-0.01,0.14
16.904,-0.27,-0.08,0.06,0.29
16.915,-0.31,0.24,0.31,0.50
16.925,-0.28,0.41,-0.13,0.51
16.935,-0.23,0.14,-0.28,0.39
16.945,0.17,-0.34,0.04,0.38
16.955,0.14,-0.29,-0.25,0.41
16.965,0.18,-0.21,-0.15,0.32
16.975,0.20,-0.30,-0.06,0.37
16.985,0.27,0.04,-0.15,0.32
16.995,0.46,0.19,0.19,0.54
17.005,0.43,0.33,-0.31,0.63
17.015,-0.03,0.02,-0.00,0.04
17.025,-0.21,-0.10,-0.18,0.29
17.035,-0.38,0.02,0.19,0.42
17.046,-0.29,0.65,-0.34,0.79
17.056,0.22,0.76,-1.51,1.70
17.066,-0.32,-0.32,2.64,2.68
17.076,-0.11,-0.77,-0.13,0.78
17.086,-0.07,0.30,-3.57,3.58
17.096,-0.33,1.35,-1.60,2.11
17.106,-0.39,3.55,-5.66,6.69
17.116,2.25,-5.36,13.99,15.15
17.126,-1.57,3.56,-4.67,6.07
17.136,3.06,-1.94,-0.05,3.63
17.146,-3.35,-0.33,0.12,3.37
17.157,2.46,-1.72,0.39,3.02
17.167,-1.36,-0.40,0.10,1.42
17.177,0.34,0.21,-0.43,0.59
17.187,-0.42,0.84,0.51,1.07
17.197,-0.11,0.24,-0.31,0.41
17.207,-0.02,-0.48,-0.23,0.53
17.217,0.25,-0.44,-0.12,0.52
17.227,0.14,-0.17,-0.16,0.28
17.237,0.23,-0.21,-0.03,0.31
17.247,0.21,0.03,-0.17,0.27
17.257,0.39,0.16,0.17,0.45
17.267,0.28,0.42,-0.09,0.52
17.278,0.02,0.14,-0.30,0.33
17.288,-0.25,-0.18,-0.03,0.31
17.298,-0.30,-0.05,0.40,0.50
17.308,-0.34,0.36,-0.05,0.50
17.318,-0.26,0.55,-0.13,0.62
17.328,0.11,-0.10,0.05,0.16
17.338,0.06,-0.50,-0.38,0.63
17.348,0.11,-0.36,-0.07,0.39
17.358,0.14,-0.13,-0.04,0.19
17.368,0.12,-0.03,-0.25,0.27
17.378,0.32,-0.05,0.15,0.36
17.389,0.40,0.18,0.08,0.44
17.399,0.36,0.26,-0.41,0.61
17.409,0.04,0.18,0.19,0.26
17.419,-0.27,-0.24,0.00,0.36
17.429,-0.50,-0.09,0.07,0.51
17.439,-0.39,0.38,0.08,0.55
17.449,-0.10,0.42,-0.06,0.44
17.459,0.03,-0.03,-0.23,0.23
17.469,0.23,-0.43,-0.18,0.52
17.479,0.20,-0.40,-0.11,0.46
17.489,0.15,-0.18,-0.18,0.29
17.500,0.08,0.06,-0.13,0.16
17.510,0.32,0.02,0.11,0.34
17.520,0.40,0.17,0.03,0.43
17.530,0.37,0.15,-0.25,0.47
17.540,-0.04,0.22,-0.11,0.24
17.550,-0.31,-0.20,0.17,0.40
17.560,-0.45,-0.12,0.26,0.53
17.570,-0.35,0.35,-0.22,0.55
17.580,-0.04,0.34,0.06,0.35
17.590,0.17,0.06,-0.26,0.32
17.600,0.11,-0.48,-0.08,0.50
17.610,0.08,-0.47,-0.25,0.54
17.621,0.17,-0.18,-0.08,0.27
17.631,0.09,0.12,-0.08,0.17
17.641,0.35,0.17,0.04,0.39
17.651,0.50,0.13,0.01,0.52
17.661,0.22,0.17,-0.25,0.38
17.671,0.04,-0.02,-0.11,0.12
17.681,-0.29,-0.16,0.20,0.39
17.691,-0.42,-0.05,0.24,0.49
17.701,-0.46,0.38,-0.19,0.63
17.711,-0.04,0.32,-0.03,0.33
17.721,0.14,-0.02,-0.11,0.18
17.731,0.08,-0.38,-0.25,0.46
17.742,0.19,-0.45,-0.19,0.53
17.752,0.18,-0.25,-0.04,0.31
17.762,0.16,0.20,-0.22,0.34
17.772,0.47,0.32,0.22,0.61
17.782,0.43,0.16,-0.07,0.47
17.792,0.05,0.04,-0.32,0.33
17.802,-0.15,-0.10,-0.14,0.23
17.812,-0.29,-0.10,0.11,0.32
17.822,-0.24,-0.12,0.33,0.43
17.832,-0.31,0.35,-0.20,0.51
17.842,-0.14,0.34,-0.08,0.37
17.853,0.11,-0.07,0.04,0.14
17.862,0.08,-0.27,-0.46,0.54
17.873,0.14,-0.48,0.07,0.50
17.883,0.22,-0.22,-0.24,0.39
17.893,0.21,0.09,-0.01,0.23
17.903,0.23,0.41,0.07,0.47
17.913,0.39,0.20,-0.10,0.45
17.923,0.15,0.02,-0.19,0.24
17.933,-0.10,-0.11,-0.13,0.19
17.943,-0.22,-0.15,0.10,0.28
17.953,-0.28,0.06,0.29,0.41
17.964,-0.36,0.28,-0.04,0.46
17.973,-0.16,0.32,-0.17,0.39
17.984,0.07,-0.05,-0.06,0.10
17.994,0.13,-0.23,-0.19,0.33
18.004,0.20,-0.37,-0.15,0.44
18.014,0.21,-0.38,-0.10,0.45
18.024,0.21,0.01,-0.10,0.24
18.034,0.38,0.34,0.14,0.53
18.044,0.34,0.43,-0.17,0.57
18.054,0.14,-0.01,-0.15,0.20
18.064,-0.17,-0.23,-0.04,0.29
18.074,-0.26,-0.20,-0.02,0.33
18.084,-0.29,0.14,0.28,0.43
18.095,-0.25,0.35,0.02,0.43
18.105,-0.04,0.20,-0.20,0.28
18.115,0.05,-0.18,-0.11,0.22
18.125,0.15,-0.31,-0.19,0.40
18.135,0.09,-0.15,-0.12,0.22
18.145,0.24,-0.27,-0.14,0.39
18.155,0.19,-0.04,-0.08,0.21
18.165,0.47,0.33,0.04,0.58
18.175,0.31,0.37,-0.02,0.49
18.185,0.22,0.07,-0.31,0.38
18.195,-0.20,-0.28,0.03,0.35
18.206,-0.26,-0.27,-0.07,0.38
18.216,-0.27,0.06,0.32,0.43
18.226,-0.38,0.65,-0.04,0.76
18.236,0.08,0.15,-0.07,0.18
18.246,-0.04,-0.31,-0.21,0.38
18.256,0.09,-0.30,-0.22,0.38
18.266,0.18,-0.17,-0.04,0.25
18.276,0.29,-0.18,-0.22,0.40
18.286,0.15,-0.12,-0.01,0.19
18.296,0.33,0.08,-0.08,0.35
18.307,0.31,0.33,0.04,0.45
18.316,0.18,0.27,-0.23,0.40
18.327,-0.07,-0.05,-0.08,0.12
18.337,-0.35,-0.06,0.06,0.36
18.347,-0.25,0.01,0.32,0.41
18.357,-0.31,0.45,-0.08,0.55
18.367,-0.06,0.24,-0.05,0.25
18.377,0.18,-0.40,-0.19,0.48
18.387,0.04,-0.37,-0.23,0.44
18.397,0.17,-0.23,-0.07,0.29
18.407,-0.02,-0.06,-0.13,0.14
18.417,0.17,-0.12,-0.20,0.28
18.427,0.34,0.05,0.22,0.41
18.438,0.47,0.23,-0.08,0.53
18.448,0.31,0.31,-0.29,0.52
18.458,-0.10,0.14,0.08,0.19
18.468,-0.39,-0.11,-0.07,0.41
18.478,-0.40,-0.04,0.32,0.51
18.488,-0.25,0.28,-0.08,0.38
18.498,-0.08,0.38,-0.13,0.42
18.508,0.15,-0.23,0.03,0.28
18.518,0.09,-0.43,-0.37,0.58
18.528,0.12,-0.24,-0.03,0.27
18.538,0.12,-0.12,-0.02,0.17
18.548,0.16,-0.07,-0.21,0.27
18.558,0.52,-0.00,0.18,0.55
18.569,0.33,0.23,-0.02,0.40
18.579,0.17,0.21,-0.29,0.40
18.589,-0.16,0.17,-0.04,0.24
18.599,-0.34,-0.11,0.15,0.39
18.609,-0.29,-0.10,0.24,0.39
18.619,-0.32,0.34,-0.16,0.50
18.629,0.07,0.32,-0.02,0.32
18.639,0.13,-0.17,-0.16,0.27
18.649,0.11,-0.55,-0.29,0.63
18.659,0.08,-0.34,-0.06,0.36
18.670,0.13,-0.10,-0.17,0.24
18.679,0.08,0.11,-0.06,0.15
18.690,0.46,0.02,0.08,0.47
18.700,0.47,0.12,-0.08,0.49
18.710,0.24,0.22,-0.16,0.36
18.720,-0.15,0.04,-0.10,0.18
18.730,-0.36,-0.09,0.15,0.40
18.740,-0.32,0.04,0.19,0.38
18.750,-0.41,0.43,-0.05,0.59
18.760,-0.05,0.16,-0.14,0.22
18.770,0.11,-0.12,-0.20,0.26
18.780,0.22,-0.43,-0.06,0.49
18.791,0.19,-0.41,-0.30,0.55
18.800,0.10,-0.22,-0.04,0.24
18.811,0.26,0.12,-0.08,0.30
18.821,0.41,0.25,0.08,0.48
18.831,0.47,0.13,-0.10,0.50
18.841,0.04,0.08,-0.25,0.27
18.851,-0.24,0.00,-0.11,0.26
18.861,-0.41,0.07,0.37,0.55
18.871,-0.32,0.02,0.10,0.33
18.881,-0.27,0.49,-0.30,0.63
18.891,0.04,0.22,0.17,0.28
18.901,0.17,-0.26,-0.33,0.45
18.911,0.13,-0.49,-0.13,0.53
18.922,0.13,-0.42,-0.08,0.45
18.932,0.06,-0.13,-0.26,0.30
18.942,0.32,0.19,0.20,0.42
18.952,0.50,0.35,-0.03,0.61
18.962,0.31,0.08,-0.25,0.41
18.972,0.13,-0.05,-0.10,0.17
18.982,-0.25,-0.16,0.03,0.30
18.992,-0.35,0.04,0.19,0.40
19.002,-0.29,0.35,0.01,0.45
19.012,-0.21,0.41,-0.04,0.46
19.023,0.02,-0.05,-0.14,0.15
19.033,0.07,-0.33,-0.27,0.43
19.043,0.20,-0.32,-0.07,0.39
19.053,0.22,-0.33,-0.16,0.43
19.063,0.13,-0.16,-0.15,0.25
19.073,0.33,0.17,0.13,0.39
19.083,0.44,0.32,0.07,0.55
19.093,0.27,0.16,-0.38,0.49
19.103,-0.12,-0.07,-0.01,0.14
19.113,-0.28,-0.11,0.01,0.30
19.123,-0.41,0.12,0.37,0.56
19.133,-0.37,0.49,-0.06,0.62
19.144,-0.01,0.13,-0.08,0.15
19.153,0.09,-0.25,-0.19,0.33
19.164,0.22,-0.41,-0.17,0.49
19.174,0.06,-0.21,-0.09,0.24
19.184,0.12,-0.22,-0.18,0.31
19.194,0.13,-0.06,-0.15,0.21
19.204,0.45,0.19,0.17,0.51
19.214,0.44,0.36,-0.12,0.58
19.224,0.27,0.17,-0.30,0.44
19.234,-0.06,-0.21,0.12,0.25
19.244,-0.46,-0.21,-0.00,0.51
19.254,-0.41,0.15,0.29,0.53
19.265,-0.35,0.70,-0.16,0.80
19.275,0.04,0.12,0.07,0.15
19.285,0.02,-0.35,-0.39,0.52
19.295,0.18,-0.40,-0.17,0.47
19.305,0.19,-0.14,0.04,0.24
19.315,0.13,-0.13,-0.25,0.31
19.325,0.16,-0.12,-0.07,0.22
19.335,0.37,0.12,0.19,0.43
19.345,0.43,0.33,-0.16,0.56
19.355,0.19,0.22,-0.16,0.33
19.366,-0.15,-0.17,-0.06,0.23
19.376,-0.44,-0.22,0.19,0.53
19.386,-0.35,0.26,0.15,0.46
19.396,-0.35,0.59,-0.09,0.70
19.406,0.10,0.05,-0.12,0.17
19.416,0.12,-0.42,-0.25,0.51
19.426,0.27,-0.45,-0.10,0.54
19.436,0.10,-0.17,-0.14,0.24
19.446,0.04,-0.04,-0.19,0.20
19.456,0.29,-0.08,-0.07,0.31
19.466,0.35,0.17,0.22,0.44
19.476,0.45,0.24,-0.21,0.55
19.487,0.08,0.29,-0.19,0.36
19.497,-0.13,-0.10,0.08,0.19
19.507,-0.43,-0.15,0.26,0.52
19.517,-0.49,0.18,-0.01,0.53
19.527,-0.32,0.51,-0.15,0.62
19.537,0.19,0.05,0.02,0.20
19.547,0.17,-0.42,-0.32,0.55
19.557,0.17,-0.44,-0.17,0.50
19.567,0.21,-0.15,-0.02,0.26
19.577,0.02,0.01,-0.14,0.14
19.588,0.26,-0.05,-0.12,0.29
19.597,0.36,0.11,0.21,0.43
19.607,0.34,0.26,-0.24,0.49
19.618,0.10,0.18,-0.12,0.24
19.628,-0.27,-0.06,-0.02,0.28
19.638,-0.34,-0.24,0.35,0.55
19.648,-0.41,0.20,-0.08,0.46
19.658,-0.23,0.46,-0.13,0.53
19.668,0.12,0.12,0.03,0.17
19.678,0.20,-0.43,-0.23,0.52
19.688,0.10,-0.49,-0.26,0.56
19.698,0.21,-0.27,0.05,0.35
19.708,0.09,0.11,-0.21,0.25
19.719,0.11,0.16,0.06,0.20
19.728,0.61,0.08,0.14,0.63
19.739,0.30,0.19,-0.20,0.41
19.749,0.06,0.12,-0.26,0.29
19.759,-0.21,-0.06,0.22,0.32
19.769,-0.33,-0.20,0.14,0.41
19.779,-0.47,0.21,-0.11,0.53
19.789,-0.18,0.44,0.01,0.47
19.799,0.08,0.12,-0.17,0.22
19.809,0.11,-0.31,-0.24,0.41
19.819,0.27,-0.52,-0.09,0.59
19.829,0.19,-0.28,-0.23,0.41
19.839,0.20,-0.02,-0.02,0.20
19.850,0.34,0.32,-0.01,0.47
19.860,0.38,0.23,0.18,0.48
19.870,0.17,0.10,-0.50,0.54
19.880,-0.08,-0.09,0.09,0.15
19.890,-0.25,-0.06,-0.03,0.26
19.900,-0.27,-0.07,0.22,0.36
19.910,-0.24,0.11,0.09,0.28
19.920,-0.21,0.38,-0.21,0.48
19.930,0.09,0.06,-0.01,0.10
19.940,0.09,-0.18,-0.19,0.28
19.950,0.13,-0.38,-0.19,0.44
19.960,0.07,-0.32,-0.04,0.33
19.971,0.30,0.04,-0.17,0.35
19.981,0.29,0.34,0.12,0.47
19.991,0.31,0.20,-0.08,0.38
20.001,0.30,-0.00,-0.23,0.38
20.011,-0.10,-0.05,-0.04,0.12
20.021,-0.12,-0.13,-0.14,0.22
20.031,-0.33,0.15,0.39,0.53
20.041,-0.29,0.17,0.05,0.34
20.051,-0.26,0.22,-0.26,0.42
20.061,0.04,-0.00,-0.06,0.07
20.071,0.14,-0.17,-0.14,0.26
20.082,0.21,-0.28,-0.17,0.39
20.092,0.23,-0.45,-0.10,0.52
20.102,0.21,-0.11,-0.20,0.31
20.112,0.34,0.29,0.21,0.49
20.122,0.36,0.40,-0.13,0.55
20.132,0.18,0.13,-0.20,0.30
20.142,-0.08,-0.18,-0.10,0.22
20.152,-0.27,-0.15,-0.08,0.32
20.162,-0.30,0.06,0.37,0.48
20.172,-0.21,0.31,-0.06,0.38
20.182,-0.08,0.27,-0.07,0.29
20.192,0.08,-0.18,-0.12,0.23
20.203,0.02,-0.33,-0.28,0.44
20.213,0.11,-0.21,-0.05,0.25
20.223,0.17,-0.23,-0.11,0.30
20.233,0.14,-0.17,-0.10,0.24
20.243,0.39,0.20,-0.05,0.44
20.253,0.44,0.35,0.07,0.57
20.263,0.14,0.16,0.10,0.23
20.273,0.05,-0.11,-0.38,0.40
20.283,-0.09,-0.25,-0.67,0.72
20.293,-0.57,0.12,1.16,1.30
20.304,-0.14,0.55,-0.19,0.60
20.314,-0.33,0.12,-0.01,0.36
20.324,0.24,-0.30,-0.35,0.52
20.334,-0.01,-0.30,0.11,0.32
20.344,0.20,-0.16,-0.24,0.35
20.354,0.08,-0.17,-0.11,0.22
20.364,0.25,-0.25,-0.01,0.36
20.374,0.28,0.07,-0.06,0.30
20.384,0.45,0.25,-0.09,0.52
20.394,0.28,0.31,-0.14,0.44
20.404,-0.14,0.13,0.05,0.20
20.414,-0.26,-0.15,-0.09,0.32
20.424,-0.41,-0.12,0.31,0.53
20.435,-0.24,0.27,0.02,0.37
20.445,-0.12,0.41,-0.06,0.43
20.455,0.19,-0.20,-0.19,0.34
20.465,0.08,-0.41,-0.20,0.46
20.475,0.19,-0.33,-0.03,0.38
20.485,-0.02,-0.12,-0.09,0.15
20.495,0.12,-0.15,-0.19,0.27
20.505,0.40,0.05,0.07,0.41
20.515,0.43,0.29,-0.05,0.52
20.525,0.35,0.25,-0.23,0.49
20.535,-0.04,0.15,0.07,0.17
20.545,-0.35,0.02,-0.18,0.40
20.556,-0.44,-0.11,0.37,0.58
20.566,-0.30,0.13,-0.03,0.33
20.576,0.01,0.40,-0.19,0.44
20.586,0.11,-0.11,-0.01,0.15
20.596,0.10,-0.45,-0.32,0.56
20.606,0.12,-0.38,-0.11,0.41
20.616,0.07,-0.14,-0.05,0.16
20.626,0.14,0.01,-0.25,0.29
20.636,0.41,-0.04,0.04,0.41
20.646,0.41,0.15,0.12,0.45
20.656,0.24,0.25,-0.43,0.56
20.666,-0.05,0.16,0.18,0.25
20.677,-0.33,-0.04,-0.11,0.35
20.687,-0.41,-0.11,0.25,0.49
20.697,-0.17,0.16,0.07,0.24
20.707,-0.17,0.37,-0.17,0.44
20.717,0.12,0.01,-0.13,0.18
20.727,0.25,-0.52,-0.14,0.59
20.737,0.07,-0.44,-0.23,0.50
20.747,0.08,-0.23,-0.06,0.25
20.757,0.15,0.10,-0.14,0.22
20.767,0.32,0.16,0.04,0.36
20.778,0.45,0.07,0.03,0.46
20.788,0.32,0.20,-0.27,0.46
20.798,-0.03,0.08,-0.11,0.14
20.808,-0.27,-0.13,0.15,0.34
20.818,-0.37,-0.11,0.22,0.44
20.828,-0.55,0.47,-0.13,0.73
20.838,-0.05,0.25,0.14,0.29
20.848,0.15,-0.05,-0.37,0.40
20.858,0.15,-0.40,-0.07,0.43
20.868,0.31,-0.52,-0.17,0.63
20.878,0.09,-0.28,-0.08,0.31
20.888,0.23,0.09,-0.17,0.30
20.898,0.35,0.31,0.27,0.53
20.909,0.45,0.11,-0.18,0.50
20.919,0.06,0.15,-0.21,0.26
20.929,-0.08,-0.06,-0.02,0.10
20.939,-0.39,0.07,0.01,0.39
20.949,-0.23,-0.05,0.43,0.49
20.959,-0.35,0.33,-0.25,0.54
20.969,-0.12,0.33,-0.17,0.40
20.979,0.26,-0.20,0.03,0.33
20.989,0.14,-0.32,-0.34,0.49
21.000,0.15,-0.47,-0.09,0.51
21.010,0.10,-0.29,-0.14,0.34
21.019,0.32,0.10,-0.10,0.34
21.030,0.33,0.38,0.21,0.55
21.040,0.41,0.17,-0.19,0.49
21.050,0.11,0.02,-0.26,0.28
21.060,-0.15,-0.09,0.02,0.18
21.070,-0.32,0.04,0.19,0.37
21.080,-0.38,0.14,0.26,0.48
21.090,-0.17,0.25,-0.31,0.44
21.100,-0.04,0.10,0.08,0.14
21.110,0.16,-0.12,-0.29,0.35
21.120,0.10,-0.26,-0.12,0.30
21.131,0.24,-0.39,-0.11,0.47
21.141,0.05,-0.27,-0.13,0.30
21.151,0.42,0.03,-0.09,0.43
21.161,0.36,0.35,0.21,0.55
21.171,0.36,0.27,-0.25,0.52
21.181,-0.01,-0.07,-0.08,0.11
21.191,-0.28,-0.17,-0.09,0.34
21.201,-0.31,0.00,0.29,0.42
21.211,-0.33,0.46,0.11,0.57
21.221,-0.14,0.34,-0.10,0.38
21.231,0.01,-0.14,-0.32,0.35
21.242,0.23,-0.44,-0.06,0.50
21.252,0.12,-0.22,-0.10,0.27
21.262,0.10,-0.22,-0.20,0.31
21.272,0.10,-0.23,-0.14,0.28
21.282,0.31,0.08,0.03,0.32
21.292,0.46,0.35,0.04,0.58
21.302,0.33,0.28,-0.21,0.48
21.312,0.04,-0.12,-0.11,0.17
21.322,-0.33,-0.23,0.01,0.40
21.332,-0.42,-0.10,0.48,0.64
21.342,-0.36,0.55,-0.16,0.67
21.353,-0.10,0.37,-0.03,0.38
21.362,0.08,-0.12,-0.17,0.22
21.373,0.22,-0.44,-0.20,0.53
21.383,0.09,-0.24,-0.14,0.29
21.393,0.18,-0.11,-0.11,0.23
21.403,0.21,-0.24,-0.06,0.32
21.413,0.24,0.04,0.05,0.25
21.423,0.43,0.28,-0.07,0.52
21.433,0.22,0.37,-0.16,0.46
21.443,-0.02,-0.10,-0.07,0.13
21.453,-0.36,-0.18,-0.06,0.41
21.463,-0.38,0.03,0.41,0.56
21.473,-0.33,0.54,-0.24,0.68
21.484,-0.02,0.23,0.01,0.23
21.494,0.20,-0.36,-0.22,0.46
21.504,0.11,-0.45,-0.28,0.54
21.514,0.23,-0.23,-0.03,0.32
21.524,0.06,0.03,-0.12,0.14
21.534,0.15,-0.03,-0.17,0.23
21.544,0.39,0.04,0.20,0.44
21.554,0.42,0.22,-0.05,0.48
21.564,0.26,0.32,-0.36,0.55
21.574,-0.10,-0.02,0.08,0.13
21.584,-0.39,-0.15,0.24,0.48
21.595,-0.38,0.11,0.06,0.40
21.605,-0.35,0.44,-0.10,0.57
21.615,0.03,0.20,-0.05,0.21
21.625,0.22,-0.39,-0.13,0.47
21.635,0.15,-0.48,-0.26,0.56
21.645,0.22,-0.25,-0.09,0.35
21.655,0.16,0.04,-0.06,0.17
21.665,0.09,0.06,-0.15,0.18
21.675,0.31,0.01,0.19,0.36
21.685,0.39,0.12,-0.13,0.43
21.695,0.12,0.24,-0.27,0.38
21.705,-0.07,0.08,0.03,0.11
21.716,-0.28,-0.32,0.29,0.51
21.726,-0.36,0.08,-0.15,0.40
21.736,-0.20,0.43,0.02,0.48
21.746,0.03,0.24,-0.07,0.25
21.756,0.13,-0.31,-0.28,0.43
21.766,0.24,-0.53,-0.19,0.61
21.776,0.08,-0.33,-0.05,0.34
21.786,0.07,0.00,-0.21,0.22
21.796,0.19,0.22,-0.02,0.30
21.806,0.39,0.12,0.20,0.46
21.816,0.37,0.15,-0.36,0.54
21.826,0.19,0.06,-0.10,0.23
21.837,-0.19,0.07,-0.03,0.20
21.847,-0.35,-0.18,0.36,0.53
21.857,-0.30,-0.05,-0.13,0.33
21.867,-0.32,0.43,-0.08,0.54
21.877,0.13,0.27,0.05,0.31
21.887,0.08,-0.22,-0.21,0.32
21.897,0.24,-0.50,-0.26,0.61
21.907,0.07,-0.32,0.00,0.32
21.917,0.23,-0.05,-0.13,0.27
21.927,0.29,0.25,0.03,0.38
21.937,0.51,0.34,-0.22,0.65
21.947,0.16,0.15,0.19,0.28
21.958,0.09,-0.12,-0.37,0.40
21.968,-0.39,-0.13,-0.08,0.42
21.978,-0.20,-0.06,0.33,0.39
21.988,-0.19,0.06,0.12,0.23
21.998,-0.20,0.36,-0.16,0.44
22.008,0.08,0.15,-0.04,0.18
22.018,0.11,-0.15,-0.18,0.26
22.028,0.07,-0.41,-0.08,0.42
22.038,0.14,-0.34,-0.30,0.47
22.048,0.21,-0.13,0.07,0.25
22.058,0.28,0.31,-0.03,0.41
22.068,0.41,0.33,-0.08,0.53
22.078,0.24,0.08,-0.05,0.26
22.089,0.04,-0.05,-0.23,0.24
22.099,-0.19,-0.18,-0.02,0.27
22.109,-0.30,0.04,0.26,0.40
22.119,-0.27,0.19,0.10,0.35
22.129,-0.22,0.30,-0.18,0.41
22.139,0.02,0.09,0.01,0.09
22.149,0.11,-0.19,-0.23,0.31
22.159,0.18,-0.30,-0.10,0.36
22.169,0.27,-0.48,-0.07,0.56
22.179,0.08,-0.20,-0.19,0.29
22.190,0.32,0.24,-0.00,0.40
22.200,0.40,0.50,0.07,0.64
22.210,0.29,0.31,-0.26,0.50
22.220,-0.05,-0.12,-0.07,0.15
22.230,-0.22,-0.33,-0.12,0.41
22.240,-0.37,-0.09,0.31,0.49
22.250,-0.26,0.29,0.08,0.40
22.260,-0.12,0.29,-0.07,0.32
22.270,0.10,-0.03,-0.22,0.24
22.280,0.07,-0.30,-0.07,0.32
22.290,0.18,-0.24,-0.31,0.43
22.300,0.07,-0.31,0.11,0.33
22.310,0.08,-0.20,-0.19,0.29
22.321,0.29,0.15,-0.04,0.33
22.331,0.52,0.41,-0.06,0.67
22.341,0.36,0.28,-0.09,0.47
22.351,0.08,-0.05,-0.10,0.14
22.361,-0.29,-0.28,-0.05,0.41
22.371,-0.33,-0.18,0.17,0.41
22.381,-0.39,0.38,0.09,0.55
22.391,-0.11,0.45,0.04,0.46
22.401,0.12,-0.07,-0.24,0.28
22.411,0.13,-0.29,-0.26,0.41
22.422,0.18,-0.27,0.12,0.34
22.432,0.07,-0.16,-0.35,0.39
22.442,0.18,-0.30,-0.01,0.35
22.452,0.33,0.04,-0.04,0.33
22.462,0.36,0.19,0.05,0.41
22.472,0.36,0.28,-0.28,0.54
22.482,0.04,0.06,-0.01,0.07
22.492,-0.35,0.16,-0.11,0.40
22.502,-0.43,-0.04,0.37,0.57
22.512,-0.31,0.09,-0.11,0.34
22.522,-0.15,0.37,-0.07,0.41
22.533,0.32,-0.17,-0.03,0.36
22.543,0.08,-0.45,-0.34,0.57
22.553,0.09,-0.31,-0.11,0.34
22.563,0.09,-0.16,0.01,0.18
22.573,0.05,-0.02,-0.30,0.30
22.583,0.30,-0.08,0.08,0.32
22.593,0.41,0.15,0.09,0.45
22.603,0.53,0.27,-0.32,0.67
22.613,0.16,0.09,0.05,0.20
22.623,-0.39,0.09,-0.11,0.42
22.633,-0.52,0.13,0.18,0.57
22.644,-0.36,0.02,0.24,0.43
22.654,-0.19,0.34,-0.27,0.47
22.664,0.14,0.02,-0.11,0.18
22.674,0.38,-0.52,-0.19,0.67
22.684,0.02,-0.32,-0.17,0.36
22.694,0.10,-0.09,-0.06,0.15
22.704,0.11,-0.01,-0.07,0.13
22.714,0.29,-0.16,-0.22,0.40
22.724,0.45,0.14,0.20,0.51
22.734,0.39,0.24,-0.23,0.51
22.744,0.16,0.07,-0.14,0.22
22.754,-0.37,0.07,0.09,0.39
22.764,-0.52,0.10,0.20,0.57
22.775,-0.33,0.12,0.07,0.36
22.785,-0.11,0.19,-0.03,0.23
22.795,0.07,0.09,-0.24,0.27
22.805,0.26,-0.46,-0.03,0.53
22.815,0.15,-0.45,-0.23,0.52
22.825,0.02,-0.18,-0.10,0.20
22.835,0.09,-0.01,-0.08,0.12
22.845,0.23,0.06,0.00,0.24
22.855,0.46,0.01,-0.00,0.46
22.865,0.37,0.30,-0.19,0.51
22.875,0.13,0.20,-0.01,0.23
22.886,-0.19,-0.03,-0.13,0.23
22.896,-0.23,-0.34,0.17,0.45
22.906,-0.50,0.13,0.12,0.53
22.916,-0.29,0.39,0.08,0.49
22.926,0.02,0.15,-0.37,0.40
22.936,0.09,-0.18,-0.13,0.24
22.946,0.36,-0.50,-0.02,0.62
22.956,0.13,-0.32,-0.28,0.45
22.966,0.20,-0.12,-0.02,0.24
22.976,0.39,0.31,-0.13,0.52
22.986,0.45,0.13,0.18,0.50
22.996,0.33,0.02,-0.48,0.58
23.007,-0.18,0.00,0.12,0.21
23.017,-0.32,0.23,-0.01,0.40
23.027,-0.52,0.31,0.30,0.67
23.037,-0.22,-0.01,0.06,0.23
23.047,-0.03,0.07,-0.27,0.28
23.057,0.18,-0.14,-0.05,0.24
23.067,0.23,-0.22,-0.18,0.37
23.077,0.10,-0.36,-0.12,0.39
23.087,-0.04,-0.28,-0.09,0.30
23.097,0.27,-0.05,-0.12,0.30
23.107,0.43,0.30,0.04,0.53
23.117,0.45,0.22,0.07,0.51
23.128,0.35,-0.01,-0.33,0.48
23.138,-0.17,-0.12,-0.01,0.21
23.148,-0.32,0.00,0.03,0.32
23.158,-0.39,0.23,0.40,0.60
23.168,-0.28,0.20,-0.10,0.36
23.178,-0.15,0.16,-0.32,0.39
23.188,0.31,-0.23,0.07,0.39
23.198,0.11,-0.21,-0.24,0.34
23.208,0.11,-0.26,-0.20,0.35
23.218,0.23,-0.31,-0.08,0.39
23.228,0.20,-0.02,-0.12,0.24
23.239,0.36,0.26,0.14,0.47
23.249,0.48,0.25,-0.15,0.57
23.259,0.13,-0.00,-0.11,0.17
23.269,-0.26,-0.12,-0.12,0.31
23.279,-0.34,-0.04,0.11,0.36
23.289,-0.32,0.42,0.32,0.61
23.299,-0.19,0.31,-0.02,0.37
23.309,-0.14,-0.07,-0.38,0.41
23.319,0.17,-0.48,-0.01,0.50
23.329,0.21,-0.15,-0.22,0.34
23.339,0.09,-0.06,-0.04,0.11
23.349,0.17,-0.29,-0.21,0.40
23.360,0.20,-0.05,-0.05,0.21
23.370,0.44,0.27,0.18,0.54
23.380,0.45,0.31,-0.22,0.59
23.390,0.19,-0.01,-0.09,0.21
23.400,-0.20,-0.10,-0.16,0.27
23.410,-0.35,-0.17,0.30,0.49
23.420,-0.42,0.26,0.07,0.50
23.430,-0.24,0.47,-0.12,0.54
23.440,0.08,-0.01,-0.12,0.14
23.450,0.16,-0.36,-0.20,0.44
23.461,0.15,-0.32,-0.09,0.36
23.470,0.11,-0.05,-0.20,0.23
23.481,0.26,-0.22,-0.00,0.34
23.491,0.36,-0.00,-0.08,0.37
23.501,0.42,0.19,0.04,0.46
23.511,0.31,0.32,-0.21,0.49
23.521,-0.03,0.05,-0.08,0.10
23.531,-0.36,-0.17,0.05,0.40
23.541,-0.48,-0.04,0.28,0.56
23.551,-0.26,0.40,-0.09,0.48
23.561,0.01,0.41,-0.12,0.43
23.571,0.21,-0.32,0.03,0.38
23.581,0.06,-0.46,-0.42,0.62
23.592,0.14,-0.31,-0.03,0.35
23.602,0.06,0.03,-0.11,0.13
23.612,0.01,0.01,-0.11,0.11
23.622,0.38,0.01,-0.06,0.39
23.632,0.46,0.12,0.13,0.50
23.642,0.51,0.34,-0.26,0.66
23.652,-0.03,0.06,0.03,0.08
23.662,-0.30,-0.27,0.03,0.41
23.672,-0.53,-0.00,0.19,0.56
23.682,-0.44,0.37,-0.04,0.58
23.692,-0.03,0.37,-0.21,0.42
23.702,0.24,-0.22,-0.04,0.33
23.713,0.27,-0.44,-0.29,0.59
23.723,0.14,-0.38,-0.09,0.41
23.733,0.06,-0.07,-0.14,0.17
23.743,0.09,0.12,-0.09,0.17
23.753,0.34,0.03,0.14,0.37
23.763,0.29,0.22,-0.08,0.38
23.773,0.33,0.17,-0.21,0.43
23.783,0.01,0.12,-0.02,0.12
23.793,-0.18,-0.38,0.16,0.45
23.803,-0.26,-0.13,0.07,0.30
23.813,-0.45,0.43,-0.02,0.62
23.823,-0.06,0.37,0.01,0.37
23.834,0.07,-0.08,-0.26,0.28
23.844,0.24,-0.55,-0.10,0.60
23.854,0.13,-0.40,-0.22,0.47
23.864,0.08,-0.13,-0.02,0.16
23.874,0.15,0.25,-0.23,0.38
23.884,0.36,0.16,0.28,0.48
23.894,0.43,0.16,-0.20,0.50
23.904,0.33,0.06,-0.13,0.36
23.914,-0.04,0.01,-0.15,0.16
23.924,-0.33,-0.15,0.43,0.56
23.934,-0.28,-0.12,-0.01,0.30
23.944,-0.57,0.30,-0.21,0.68
23.955,0.04,0.28,0.06,0.28
23.965,0.15,-0.04,-0.17,0.24
23.975,0.35,-0.46,-0.18,0.61
23.985,0.15,-0.39,-0.20,0.46
23.995,-0.01,-0.08,-0.05,0.09
24.005,0.09,0.24,-0.04,0.26
24.015,0.47,0.22,0.10,0.53
24.025,0.51,0.11,-0.13,0.54
24.035,0.19,-0.00,-0.25,0.32
24.045,0.01,-0.17,-0.09,0.19
24.056,-0.46,-0.05,0.21,0.50
24.066,-0.35,-0.03,0.21,0.41
24.076,-0.34,0.37,-0.18,0.53
24.086,0.04,0.21,-0.01,0.22
24.096,0.24,-0.15,-0.20,0.35
24.106,0.17,-0.34,-0.14,0.40
24.116,0.20,-0.41,-0.14,0.47
24.126,0.02,-0.17,-0.13,0.21
24.136,0.20,0.29,0.01,0.36
24.146,0.33,0.45,0.12,0.57
24.156,0.38,0.10,-0.29,0.49
24.166,0.05,-0.01,-0.03,0.05
24.177,-0.08,-0.18,-0.19,0.27
24.186,-0.23,-0.13,0.23,0.35
24.197,-0.12,0.11,0.19,0.25
24.207,-0.46,0.29,0.03,0.55
24.217,0.04,0.19,-0.26,0.33
24.227,0.02,-0.14,-0.00,0.15
24.237,0.18,-0.16,-0.28,0.37
24.247,0.20,-0.45,0.03,0.50
24.257,0.19,-0.30,-0.27,0.45
24.267,0.33,0.05,0.02,0.33
24.277,0.37,0.39,0.15,0.55
24.287,0.33,0.36,-0.21,0.53
24.298,0.01,-0.01,-0.11,0.11
24.308,-0.22,-0.14,-0.13,0.29
24.318,-0.28,-0.08,0.21,0.36
24.328,-0.17,0.18,0.15,0.29
24.338,-0.17,0.20,0.02,0.26
24.348,0.04,0.05,-0.28,0.29
24.358,0.09,-0.26,-0.06,0.28
24.368,0.16,-0.25,-0.14,0.33
24.378,-0.01,-0.14,-0.26,0.29
24.388,0.14,-0.32,0.08,0.36
24.398,0.25,-0.02,-0.21,0.33
24.408,0.43,0.31,0.15,0.55
24.418,0.38,0.35,-0.14,0.54
24.429,0.12,0.06,-0.28,0.31
24.439,-0.22,-0.22,0.11,0.33
24.449,-0.40,-0.14,0.03,0.43
24.459,-0.18,0.15,0.16,0.28
24.469,-0.02,0.41,-0.01,0.41
24.479,-0.12,0.04,-0.09,0.15
24.489,0.09,-0.31,-0.36,0.48
24.499,0.14,-0.28,0.05,0.32
24.509,0.15,-0.14,-0.16,0.26
24.519,0.17,-0.21,-0.25,0.37
24.529,0.25,-0.09,0.01,0.26
24.540,0.54,0.16,0.21,0.60
24.550,0.01,0.27,-0.23,0.36
24.560,0.22,0.10,-0.39,0.46
24.570,-0.27,0.05,0.35,0.44
24.580,-0.30,0.04,-0.16,0.34
24.590,-0.28,0.00,0.31,0.42
24.600,-0.06,0.31,-0.08,0.33
24.610,0.04,0.03,-0.12,0.14
24.620,0.13,-0.36,-0.19,0.43
24.630,0.09,-0.33,-0.22,0.40
24.640,0.10,-0.19,-0.01,0.21
24.650,0.11,0.01,-0.32,0.34
24.661,0.27,-0.22,0.15,0.38
24.671,0.28,0.21,-0.12,0.37
24.681,0.44,0.28,-0.12,0.54
24.691,0.30,0.08,-0.08,0.32
24.701,-0.22,0.15,-0.13,0.29
24.711,-0.47,-0.15,0.40,0.64
24.721,-0.34,-0.01,-0.08,0.35
24.731,-0.20,0.37,0.07,0.43
24.741,0.00,0.33,-0.06,0.34
24.751,0.26,-0.38,-0.26,0.53
24.761,-0.03,-0.46,-0.08,0.46
24.772,0.09,-0.18,-0.17,0.26
24.782,0.07,0.01,-0.08,0.11
24.792,0.34,-0.01,-0.23,0.41
24.802,0.52,-0.03,0.36,0.63
24.812,0.43,0.13,-0.21,0.49
24.822,0.19,0.16,-0.36,0.43
24.832,-0.19,0.10,0.22,0.31
24.842,-0.46,-0.09,0.04,0.47
24.852,-0.41,0.13,0.12,0.45
24.862,-0.13,0.37,-0.03,0.40
24.872,0.14,0.27,-0.21,0.36
24.883,0.15,-0.45,-0.00,0.48
24.893,0.16,-0.59,-0.34,0.70
24.903,-0.03,-0.24,-0.07,0.25
24.913,0.36,-0.03,-0.02,0.36
24.923,0.03,0.23,-0.15,0.28
24.935,0.39,-0.13,0.17,0.45
24.943,0.44,0.13,-0.24,0.52
24.953,0.21,0.12,-0.07,0.25
