time,ax,ay,az,atotal
0.000,0.68,0.27,0.08,0.73
0.010,0.20,0.31,-0.32,0.49
0.020,-0.24,-0.01,-0.01,0.24
0.030,-0.49,-0.08,0.12,0.51
0.040,-0.41,0.10,0.25,0.49
0.050,-0.19,0.42,-0.08,0.47
0.061,0.02,0.39,-0.27,0.48
0.071,0.19,-0.29,0.10,0.36
0.081,0.05,-0.41,-0.36,0.55
0.091,0.13,-0.29,-0.06,0.32
0.101,0.12,0.07,-0.09,0.17
0.111,0.24,0.13,-0.06,0.28
0.121,0.34,0.14,0.05,0.37
0.131,0.40,0.24,-0.11,0.48
0.141,0.14,0.23,-0.23,0.36
0.151,-0.21,0.12,0.01,0.24
0.161,-0.40,-0.05,0.12,0.42
0.172,-0.32,0.21,0.11,0.39
0.182,-0.16,0.37,0.14,0.42
0.192,-0.03,0.15,-0.28,0.31
0.202,0.01,-0.39,-0.14,0.42
0.212,0.19,-0.48,-0.20,0.55
0.222,0.17,-0.19,-0.12,0.28
0.232,0.11,0.15,-0.11,0.22
0.242,0.15,0.28,-0.10,0.33
0.252,0.38,0.10,0.22,0.44
0.262,0.42,0.21,-0.23,0.52
0.272,0.17,0.19,-0.08,0.27
0.282,-0.20,0.08,-0.06,0.23
0.293,-0.42,-0.05,0.30,0.52
0.303,-0.40,0.03,0.16,0.43
0.313,-0.35,0.36,-0.24,0.56
0.323,0.07,0.18,0.05,0.20
0.333,0.19,-0.11,-0.27,0.35
0.343,0.17,-0.42,-0.02,0.46
0.353,0.04,-0.27,-0.22,0.36
0.363,0.19,0.00,-0.13,0.23
0.373,0.35,0.24,0.04,0.42
0.383,0.40,0.29,0.05,0.49
0.393,0.35,0.22,-0.31,0.51
0.404,-0.01,0.08,-0.00,0.08
0.414,-0.34,0.04,-0.10,0.36
0.424,-0.38,0.15,0.15,0.44
0.434,-0.26,0.06,0.42,0.50
0.444,-0.17,0.30,-0.43,0.55
0.454,0.08,-0.02,-0.00,0.09
0.464,0.20,-0.21,-0.08,0.30
0.474,0.08,-0.31,-0.29,0.43
0.484,0.04,-0.24,-0.02,0.25
0.494,0.12,-0.01,-0.10,0.16
0.505,0.28,0.29,0.06,0.41
0.514,0.50,0.40,-0.00,0.64
0.525,0.33,0.10,-0.08,0.36
0.535,0.02,0.02,-0.22,0.22
0.545,-0.34,0.05,0.08,0.35
0.555,-0.35,0.11,0.32,0.48
0.565,-0.42,0.30,0.03,0.52
0.575,-0.11,0.22,-0.22,0.33
0.585,0.06,-0.10,-0.08,0.14
0.595,0.25,-0.21,-0.16,0.37
0.605,0.10,-0.23,-0.15,0.29
0.615,0.12,-0.25,-0.16,0.32
0.625,0.19,-0.06,-0.12,0.23
0.635,0.39,0.22,0.24,0.51
0.646,0.41,0.38,-0.15,0.58
0.656,0.24,0.19,-0.20,0.37
0.666,-0.17,0.07,-0.03,0.19
0.676,-0.30,-0.10,0.14,0.34
0.686,-0.32,0.21,0.25,0.45
0.696,-0.41,0.52,-0.09,0.67
0.706,0.10,0.11,0.04,0.15
0.716,0.03,-0.31,-0.25,0.40
0.726,0.21,-0.32,-0.22,0.44
0.736,0.17,-0.13,0.02,0.22
0.746,0.11,-0.23,-0.10,0.27
0.756,0.03,0.00,-0.29,0.29
0.766,0.38,0.26,0.33,0.57
0.777,0.51,0.52,-0.18,0.75
0.787,0.22,0.22,-0.10,0.33
0.797,-0.14,-0.07,-0.01,0.16
0.807,-0.41,-0.23,0.15,0.49
0.817,-0.44,0.26,0.26,0.57
0.827,-0.38,0.70,-0.22,0.83
0.837,0.15,-0.02,0.07,0.17
0.847,0.08,-0.33,-0.29,0.45
0.857,0.26,-0.39,-0.15,0.49
0.868,0.22,-0.14,-0.23,0.35
0.877,0.03,-0.19,0.30,0.36
0.888,0.21,0.06,-0.54,0.58
0.898,0.32,0.17,0.46,0.59
0.908,0.51,0.44,-0.36,0.76
0.918,0.11,0.35,-0.08,0.38
0.928,-0.23,0.01,0.16,0.28
0.938,-0.40,-0.14,0.10,0.43
0.948,-0.54,0.25,0.17,0.62
0.958,-0.25,0.69,-0.26,0.78
0.968,0.24,-0.05,0.24,0.34
0.978,0.16,-0.50,-0.34,0.62
0.988,0.23,-0.45,-0.27,0.58
0.998,0.15,-0.15,0.09,0.22
1.009,-0.03,0.12,-0.16,0.20
1.019,0.16,0.13,-0.11,0.23
1.029,0.28,0.21,0.25,0.43
1.039,0.47,0.33,-0.34,0.67
1.049,0.13,0.30,0.02,0.32
1.059,-0.14,-0.18,0.05,0.23
1.069,-0.35,-0.09,0.17,0.40
1.079,-0.68,0.39,0.10,0.79
1.089,-0.17,0.57,-0.22,0.63
1.099,0.07,0.03,0.03,0.08
1.110,0.34,-0.49,-0.20,0.63
1.120,0.15,-0.44,-0.19,0.51
1.129,0.23,-0.15,-0.11,0.30
1.140,-0.01,0.14,-0.03,0.14
1.150,0.29,0.13,-0.04,0.32
1.160,0.27,0.21,0.10,0.36
1.170,0.41,0.23,-0.20,0.51
1.180,0.04,0.25,-0.19,0.32
1.190,-0.18,-0.10,0.16,0.26
1.200,-0.37,-0.13,0.27,0.48
1.210,-0.55,0.31,-0.13,0.64
1.220,-0.07,0.45,-0.11,0.46
1.230,0.07,0.16,-0.01,0.18
1.241,0.24,-0.38,-0.24,0.51
1.251,0.16,-0.36,-0.20,0.45
1.261,0.21,-0.38,0.23,0.50
1.271,-0.14,0.10,-0.54,0.56
1.281,0.45,0.12,0.27,0.54
1.291,0.48,0.28,0.11,0.57
1.301,0.24,0.31,-0.41,0.57
1.311,0.05,0.04,0.01,0.06
1.321,-0.30,-0.03,-0.01,0.30
1.331,-0.32,-0.11,0.35,0.48
1.341,-0.63,0.31,-0.12,0.71
1.351,-0.09,0.41,-0.12,0.43
1.362,0.07,0.15,0.04,0.17
1.372,0.32,-0.30,-0.26,0.51
1.382,0.20,-0.51,-0.11,0.56
1.392,0.17,-0.26,-0.10,0.32
1.402,0.12,0.13,-0.14,0.22
1.412,0.26,0.31,0.25,0.48
1.422,0.46,0.29,-0.16,0.57
1.432,0.12,0.19,-0.13,0.26
1.442,-0.08,0.02,-0.13,0.15
1.452,-0.35,-0.05,0.03,0.35
1.462,-0.23,-0.06,0.31,0.39
1.472,-0.35,0.31,0.01,0.47
1.482,-0.09,0.46,-0.20,0.51
1.493,0.07,0.01,0.07,0.10
1.503,0.12,-0.20,-0.31,0.39
1.513,0.08,-0.38,-0.08,0.39
1.523,0.15,-0.28,-0.09,0.33
1.533,0.21,0.09,-0.17,0.28
1.543,0.32,0.38,0.18,0.53
1.553,0.40,0.29,-0.00,0.49
1.563,0.16,0.08,-0.29,0.34
1.573,-0.09,0.01,-0.07,0.11
1.584,-0.19,-0.10,0.13,0.25
1.593,-0.33,0.12,0.21,0.41
1.604,-0.32,0.25,0.08,0.41
1.614,-0.15,0.34,-0.20,0.43
1.624,0.05,0.05,-0.08,0.10
1.634,0.14,-0.17,-0.10,0.24
1.644,0.16,-0.32,-0.23,0.43
1.654,0.20,-0.36,-0.04,0.41
1.664,0.21,0.03,-0.06,0.22
1.674,0.29,0.32,0.12,0.45
1.684,0.37,0.47,-0.13,0.61
1.694,0.16,0.10,-0.01,0.19
1.705,-0.09,-0.14,-0.26,0.31
1.715,-0.28,-0.18,0.13,0.35
1.725,-0.24,0.19,0.34,0.46
1.735,-0.27,0.45,-0.02,0.53
1.745,-0.04,0.17,-0.05,0.19
1.755,0.04,-0.19,-0.20,0.28
1.765,0.11,-0.26,-0.10,0.30
1.775,0.18,-0.15,-0.07,0.24
1.785,0.13,-0.20,-0.12,0.26
1.795,0.08,0.07,-0.17,0.20
1.805,0.40,0.23,0.27,0.53
1.815,0.39,0.44,-0.18,0.61
1.826,0.26,0.21,-0.09,0.34
1.836,-0.01,-0.15,-0.17,0.23
1.846,-0.36,-0.19,0.03,0.40
1.856,-0.28,0.03,0.38,0.47
1.866,-0.42,0.61,-0.09,0.75
1.876,-0.06,0.31,0.02,0.32
1.886,0.01,-0.24,-0.24,0.33
1.896,0.11,-0.39,-0.20,0.45
1.906,0.18,-0.18,-0.08,0.27
1.916,0.15,-0.05,-0.06,0.17
1.926,0.17,-0.08,-0.17,0.25
1.936,0.32,0.15,0.04,0.35
1.946,0.33,0.28,0.16,0.46
1.957,0.24,0.24,-0.43,0.55
1.967,-0.05,0.01,0.15,0.16
1.977,-0.28,-0.02,-0.08,0.30
1.987,-0.32,-0.01,0.36,0.48
1.997,-0.29,0.42,-0.08,0.51
2.007,-0.09,0.42,-0.14,0.45
2.017,0.14,-0.23,0.01,0.27
2.027,0.08,-0.36,-0.37,0.52
2.037,0.12,-0.26,-0.01,0.29
2.047,0.08,0.03,-0.04,0.09
2.057,0.10,0.07,-0.24,0.27
2.067,0.38,0.08,0.15,0.42
2.078,0.42,0.30,-0.03,0.52
2.088,0.35,0.29,-0.15,0.47
2.098,-0.00,0.02,-0.09,0.10
2.108,-0.38,-0.23,0.04,0.44
2.118,-0.39,-0.04,0.29,0.49
2.128,-0.41,0.47,-0.03,0.62
2.138,-0.12,0.52,-0.09,0.54
2.148,0.09,-0.12,-0.07,0.17
2.158,0.17,-0.51,-0.28,0.60
2.168,0.18,-0.42,-0.05,0.46
2.178,0.11,-0.06,-0.18,0.22
2.189,0.12,0.16,0.00,0.20
2.199,0.37,0.14,0.09,0.41
2.209,0.32,0.21,-0.08,0.39
2.219,0.37,0.24,-0.25,0.50
2.229,-0.07,0.19,0.01,0.20
2.239,-0.34,-0.09,0.07,0.36
2.249,-0.37,-0.13,0.24,0.46
2.259,-0.41,0.39,0.02,0.57
2.269,0.01,0.46,-0.19,0.50
2.279,0.11,-0.12,0.00,0.17
2.289,0.28,-0.53,-0.24,0.64
2.299,0.04,-0.44,-0.11,0.46
2.310,0.14,-0.10,-0.17,0.24
2.320,0.15,0.21,0.02,0.26
2.330,0.28,0.16,0.09,0.34
2.340,0.46,0.22,-0.14,0.53
2.350,0.27,0.21,-0.06,0.35
2.360,-0.09,0.15,-0.20,0.27
2.370,-0.42,-0.07,0.15,0.46
2.380,-0.32,-0.12,0.28,0.44
2.390,-0.50,0.34,-0.12,0.62
2.400,0.10,0.29,-0.12,0.33
2.410,0.14,-0.07,-0.05,0.17
2.421,0.18,-0.33,-0.33,0.50
2.431,0.12,-0.33,-0.07,0.36
2.441,0.14,-0.21,-0.13,0.28
2.451,0.15,0.17,-0.14,0.27
2.461,0.39,0.35,0.14,0.54
2.471,0.44,0.19,0.06,0.48
2.481,0.07,0.18,-0.42,0.47
2.491,-0.18,0.04,0.10,0.20
2.501,-0.36,0.06,0.21,0.42
2.511,-0.36,-0.00,0.22,0.42
2.521,-0.30,0.32,-0.22,0.49
2.531,-0.02,0.15,-0.06,0.16
2.542,0.26,-0.24,-0.09,0.36
2.552,0.11,-0.30,-0.23,0.39
2.562,0.15,-0.36,-0.02,0.39
2.572,-0.01,-0.12,-0.17,0.21
2.582,0.23,0.20,0.04,0.30
2.592,0.48,0.44,0.13,0.66
2.602,0.45,0.24,-0.15,0.53
2.612,0.15,0.10,-0.24,0.30
2.622,-0.25,-0.06,0.20,0.33
2.632,-0.24,0.04,-0.04,0.25
2.642,-0.61,0.20,0.39,0.75
2.652,-0.12,0.37,-0.23,0.45
2.663,-0.07,0.05,-0.23,0.25
2.673,0.30,-0.32,0.03,0.44
2.683,0.16,-0.19,-0.30,0.39
2.693,0.14,-0.39,-0.06,0.42
2.703,0.13,-0.16,-0.16,0.26
2.713,0.34,0.20,0.03,0.40
2.723,0.32,0.38,0.24,0.56
2.733,0.30,0.28,-0.35,0.54
2.743,0.01,0.06,-0.05,0.08
2.753,-0.28,-0.01,-0.00,0.28
2.763,-0.25,-0.05,0.44,0.51
2.773,-0.55,0.48,-0.17,0.75
2.784,-0.04,0.24,0.04,0.25
2.794,-0.01,-0.19,-0.25,0.31
2.804,0.38,-0.48,-0.11,0.62
2.814,0.06,-0.17,-0.10,0.20
2.824,0.09,-0.14,-0.19,0.25
2.834,0.11,-0.07,-0.01,0.13
2.844,0.28,0.18,0.06,0.34
2.854,0.41,0.44,-0.07,0.60
2.864,0.45,0.27,-0.10,0.53
2.874,-0.06,0.04,-0.04,0.08
2.884,-0.36,-0.12,-0.01,0.38
2.895,-0.35,0.03,0.38,0.52
2.905,-0.50,0.62,-0.12,0.81
2.915,-0.01,0.15,-0.01,0.15
2.925,0.03,-0.25,-0.42,0.48
2.935,0.24,-0.45,0.01,0.51
2.945,0.19,-0.21,-0.13,0.31
2.955,0.12,-0.09,-0.20,0.25
2.965,0.18,-0.07,-0.07,0.20
2.975,0.27,0.15,0.10,0.33
2.985,0.44,0.35,-0.01,0.56
2.995,0.22,0.33,-0.15,0.42
3.005,-0.16,0.08,-0.10,0.20
3.016,-0.27,-0.10,0.27,0.40
3.026,-0.46,0.14,0.14,0.50
3.036,-0.34,0.56,-0.17,0.68
3.046,0.07,0.14,0.07,0.17
3.056,0.26,-0.44,-0.17,0.54
3.066,0.08,-0.47,-0.29,0.56
3.076,0.17,-0.27,-0.08,0.33
3.086,0.01,0.08,0.01,0.08
3.096,0.13,0.05,-0.16,0.21
3.106,0.23,0.18,0.09,0.31
3.116,0.52,0.28,-0.07,0.59
3.126,0.26,0.34,-0.17,0.46
3.137,-0.17,0.06,0.02,0.18
3.147,-0.41,-0.13,0.21,0.48
3.157,-0.42,0.13,0.07,0.44
3.167,-0.35,0.51,-0.11,0.63
3.177,0.07,0.21,-0.05,0.23
3.187,0.22,-0.32,-0.19,0.44
3.197,0.08,-0.41,-0.23,0.48
3.207,0.26,-0.29,-0.08,0.40
3.217,0.05,0.01,0.01,0.05
3.228,0.19,0.08,-0.22,0.30
3.237,0.38,0.18,0.19,0.46
3.247,0.36,0.26,0.01,0.44
3.257,0.10,0.26,-0.36,0.46
3.268,-0.20,-0.01,0.13,0.24
3.278,-0.29,-0.15,0.34,0.47
3.288,-0.35,0.20,-0.03,0.41
3.298,-0.23,0.41,-0.06,0.47
3.308,0.04,0.17,-0.05,0.18
3.318,0.22,-0.34,-0.13,0.43
3.328,0.05,-0.43,-0.25,0.50
3.338,0.13,-0.33,-0.04,0.36
3.348,0.07,0.03,-0.13,0.15
3.358,0.26,0.20,0.02,0.33
3.368,0.44,0.15,0.17,0.49
3.378,0.41,0.24,-0.27,0.54
3.389,-0.00,0.20,-0.16,0.26
3.399,-0.10,0.03,0.03,0.11
3.409,-0.44,-0.16,0.37,0.59
3.419,-0.32,0.14,-0.17,0.39
3.429,-0.26,0.42,0.06,0.50
3.439,0.01,0.27,-0.01,0.27
3.449,0.15,-0.16,-0.36,0.43
3.459,0.20,-0.51,0.04,0.55
3.469,0.18,-0.30,-0.22,0.41
3.479,0.20,-0.01,-0.03,0.20
3.490,0.21,0.33,0.01,0.40
3.500,0.38,0.21,0.10,0.45
3.510,0.33,0.16,-0.27,0.46
3.520,-0.09,0.01,-0.05,0.10
3.530,-0.18,0.01,-0.06,0.19
3.540,-0.32,-0.05,0.33,0.47
3.550,-0.24,0.11,0.10,0.28
3.560,-0.16,0.46,-0.20,0.53
3.570,0.07,0.15,0.08,0.19
3.580,0.04,-0.21,-0.23,0.31
3.590,0.06,-0.41,-0.19,0.46
3.600,0.12,-0.25,-0.09,0.30
3.611,0.18,0.04,-0.03,0.19
3.621,0.29,0.33,0.07,0.45
3.631,0.42,0.31,0.00,0.52
3.641,0.27,0.07,-0.15,0.32
3.651,-0.02,-0.05,-0.17,0.18
3.661,-0.17,-0.12,-0.00,0.21
3.671,-0.33,0.11,0.32,0.47
3.681,-0.33,0.23,0.11,0.41
3.691,-0.19,0.26,-0.14,0.35
3.701,0.03,0.07,-0.08,0.11
3.711,0.16,-0.08,-0.17,0.25
3.721,0.14,-0.32,-0.02,0.35
3.732,0.18,-0.43,-0.20,0.50
3.742,0.06,-0.05,-0.08,0.11
3.752,0.37,0.29,0.11,0.49
3.762,0.36,0.43,0.00,0.56
3.772,0.24,0.20,-0.13,0.33
3.782,0.00,-0.12,-0.18,0.22
3.792,-0.31,-0.14,0.00,0.34
3.802,-0.21,0.08,0.25,0.34
3.812,-0.36,0.42,0.15,0.57
3.822,-0.06,0.24,-0.10,0.27
3.832,0.03,-0.07,-0.17,0.18
3.843,0.18,-0.29,-0.08,0.35
3.853,0.04,-0.16,-0.21,0.27
3.863,0.12,-0.18,-0.06,0.22
3.873,0.14,-0.13,-0.07,0.20
3.883,0.29,0.23,-0.04,0.37
3.893,0.39,0.33,0.17,0.54
3.903,0.39,0.30,-0.22,0.54
3.913,0.01,-0.11,-0.19,0.22
3.923,-0.24,-0.24,-0.02,0.34
3.933,-0.34,-0.07,0.41,0.53
3.943,-0.42,0.52,-0.02,0.66
3.954,-0.18,0.46,-0.02,0.49
3.963,0.13,-0.11,-0.25,0.30
3.974,0.07,-0.33,-0.11,0.35
3.984,0.15,-0.19,-0.23,0.33
3.994,0.08,-0.08,-0.10,0.15
4.004,0.29,-0.19,0.02,0.35
4.014,0.21,0.05,-0.14,0.26
4.024,0.35,0.29,0.17,0.49
4.034,0.27,0.25,-0.24,0.44
4.044,0.03,0.13,-0.13,0.19
4.054,-0.26,-0.02,0.13,0.29
4.064,-0.43,-0.05,0.21,0.48
4.075,-0.24,0.27,0.07,0.37
4.085,-0.14,0.46,-0.00,0.48
4.095,0.15,-0.11,-0.10,0.21
4.105,0.08,-0.34,-0.29,0.46
4.115,0.14,-0.34,0.02,0.36
4.125,0.00,-0.08,-0.18,0.20
4.135,0.08,0.03,-0.21,0.23
4.145,0.37,0.04,0.15,0.40
4.155,0.41,0.24,0.06,0.48
4.165,0.40,0.31,-0.32,0.60
4.175,0.01,0.14,0.00,0.14
4.185,-0.32,0.04,-0.05,0.32
4.196,-0.44,-0.06,0.30,0.54
4.206,-0.35,0.10,0.15,0.39
4.216,-0.15,0.41,-0.26,0.51
4.226,0.07,0.05,0.04,0.10
4.236,0.22,-0.43,-0.20,0.52
4.246,0.09,-0.32,-0.16,0.37
4.256,0.19,-0.09,-0.07,0.22
4.266,0.05,0.05,-0.05,0.08
4.276,0.32,0.06,-0.04,0.33
4.286,0.42,0.23,0.08,0.49
4.296,0.29,0.28,-0.10,0.42
4.306,0.03,0.18,-0.29,0.35
4.317,-0.26,-0.02,0.08,0.28
4.327,-0.25,-0.21,0.41,0.52
4.337,-0.42,0.22,-0.20,0.52
4.347,-0.16,0.46,-0.02,0.49
4.357,0.11,0.11,0.01,0.15
4.367,0.17,-0.45,-0.27,0.55
4.377,0.15,-0.48,-0.19,0.54
4.387,0.17,-0.23,-0.03,0.29
4.397,0.03,0.17,-0.12,0.21
4.407,0.26,0.21,0.07,0.34
4.417,0.51,0.09,0.04,0.52
4.427,0.22,0.27,-0.33,0.48
4.437,0.17,0.10,-0.01,0.20
4.447,-0.28,-0.01,0.06,0.29
4.458,-0.29,-0.21,0.25,0.43
4.468,-0.53,0.21,-0.01,0.57
4.478,-0.28,0.44,-0.04,0.52
4.488,0.07,0.16,-0.18,0.25
4.498,0.24,-0.30,-0.07,0.39
4.508,0.27,-0.48,-0.15,0.57
4.518,0.11,-0.26,-0.25,0.38
4.528,0.15,0.03,0.03,0.16
4.538,0.30,0.33,-0.01,0.45
4.548,0.39,0.18,0.17,0.46
4.558,0.26,0.18,-0.36,0.48
4.568,-0.09,0.08,-0.02,0.12
4.579,-0.15,0.06,0.03,0.17
4.589,-0.44,-0.04,0.39,0.59
4.599,-0.50,0.30,-0.10,0.59
4.609,-0.16,0.32,-0.18,0.41
4.619,0.24,-0.18,0.06,0.30
4.629,0.17,-0.33,-0.29,0.47
4.639,0.27,-0.42,-0.12,0.51
4.649,0.07,-0.22,-0.02,0.23
4.659,0.15,0.14,-0.10,0.23
4.669,0.30,0.43,0.08,0.53
4.680,0.50,0.20,0.05,0.54
4.690,0.22,0.14,-0.38,0.46
4.700,-0.14,-0.04,0.03,0.15
4.710,-0.08,-0.27,0.21,0.35
4.720,-0.50,0.30,0.10,0.59
4.730,-0.46,0.59,0.03,0.75
4.740,-0.21,0.25,-0.15,0.36
4.750,0.17,-0.30,-0.05,0.35
4.760,0.10,-0.31,-0.25,0.41
4.770,0.33,-0.41,-0.00,0.53
4.780,0.23,-0.33,-0.14,0.42
4.791,0.25,0.12,-0.11,0.30
4.800,0.41,0.38,0.30,0.63
4.811,0.29,0.30,-0.23,0.48
4.821,0.09,0.10,-0.16,0.21
4.831,-0.11,-0.08,0.09,0.16
4.841,-0.32,-0.08,0.14,0.36
4.851,-0.48,0.42,0.14,0.66
4.861,-0.22,0.46,-0.07,0.51
4.871,-0.03,0.01,-0.20,0.20
4.881,0.32,-0.45,-0.09,0.56
4.891,0.13,-0.34,-0.12,0.38
4.901,0.02,-0.15,-0.27,0.31
4.911,0.15,-0.12,0.11,0.23
4.922,0.26,0.13,-0.13,0.32
4.932,0.41,0.34,0.14,0.55
4.942,0.41,0.35,-0.16,0.56
4.952,0.08,0.02,-0.18,0.20
4.962,-0.13,-0.18,0.08,0.24
4.972,-0.46,-0.10,0.30,0.56
4.982,-0.51,0.56,-0.04,0.76
4.992,-0.22,0.50,-0.03,0.55
5.002,0.08,-0.10,-0.06,0.14
5.012,0.13,-0.47,-0.36,0.61
5.023,0.35,-0.43,-0.02,0.56
5.032,0.19,-0.11,-0.08,0.23
5.043,0.12,-0.09,-0.02,0.15
5.053,0.17,0.16,-0.10,0.26
5.063,0.41,0.32,0.16,0.54
5.073,0.37,0.43,-0.14,0.58
5.083,-0.02,0.04,-0.08,0.09
5.093,-0.22,-0.21,-0.00,0.30
5.103,-0.44,0.02,0.37,0.58
5.113,-0.42,0.61,-0.14,0.76
5.123,-0.14,0.47,-0.06,0.50
5.133,0.29,-0.33,0.03,0.44
5.143,0.02,-0.47,-0.40,0.62
5.154,0.28,-0.42,-0.08,0.51
5.163,0.05,-0.06,0.10,0.13
5.174,0.08,0.07,-0.31,0.33
5.184,0.32,0.13,0.22,0.40
5.194,0.51,0.24,0.01,0.56
5.204,0.31,0.33,-0.28,0.53
5.214,-0.05,0.06,0.00,0.08
5.224,-0.22,-0.29,0.23,0.43
5.234,-0.55,0.08,0.02,0.56
5.244,-0.40,0.63,-0.05,0.75
5.254,-0.09,0.52,0.02,0.53
5.264,0.26,-0.29,-0.11,0.41
5.275,0.11,-0.50,-0.31,0.60
5.285,0.24,-0.39,-0.06,0.46
5.295,0.21,-0.05,-0.02,0.22
5.305,0.06,0.21,-0.20,0.29
5.315,0.32,0.13,0.23,0.42
5.325,0.42,0.22,-0.01,0.48
5.335,0.25,0.20,-0.32,0.45
5.345,-0.07,0.02,0.02,0.07
5.355,-0.26,-0.27,0.28,0.46
5.365,-0.48,0.07,-0.02,0.49
5.375,-0.40,0.54,0.02,0.67
5.385,0.07,0.39,0.00,0.40
5.396,0.15,-0.16,-0.25,0.33
5.406,0.29,-0.58,-0.10,0.65
5.416,0.07,-0.44,-0.24,0.50
5.426,-0.01,-0.04,-0.08,0.09
5.436,0.16,0.30,0.06,0.35
5.446,0.39,0.19,0.15,0.46
5.456,0.59,0.22,-0.25,0.67
5.466,0.21,0.16,-0.10,0.28
5.476,-0.13,0.05,-0.11,0.18
5.486,-0.45,-0.17,0.27,0.55
5.496,-0.28,-0.04,0.21,0.36
5.507,-0.41,0.51,-0.25,0.70
5.517,0.13,0.38,0.07,0.40
5.527,0.08,-0.07,-0.10,0.15
5.537,0.09,-0.46,-0.32,0.57
5.547,0.24,-0.45,0.05,0.51
5.557,0.09,-0.11,-0.12,0.19
5.567,0.30,0.31,-0.12,0.45
5.577,0.40,0.27,0.37,0.61
5.587,0.35,0.26,-0.37,0.57
5.597,0.04,0.07,-0.06,0.10
5.607,-0.13,-0.08,-0.09,0.17
5.617,-0.25,-0.13,0.23,0.36
5.628,-0.35,0.03,0.20,0.40
5.638,-0.29,0.50,-0.21,0.62
5.648,0.07,0.27,0.07,0.29
5.658,0.10,-0.11,-0.13,0.20
5.668,0.08,-0.41,-0.23,0.48
5.678,0.19,-0.46,-0.19,0.53
5.688,0.14,-0.12,0.02,0.19
5.698,0.22,0.36,-0.12,0.43
5.708,0.09,0.49,0.19,0.54
5.718,0.47,0.10,-0.13,0.50
5.728,0.35,-0.04,-0.25,0.43
5.738,0.09,-0.21,0.00,0.23
5.748,-0.38,-0.17,0.23,0.47
5.759,-0.55,0.16,0.24,0.62
5.769,-0.35,0.51,-0.27,0.68
5.779,-0.01,0.26,0.10,0.28
5.789,0.21,-0.15,-0.09,0.28
5.799,0.13,-0.25,-0.42,0.51
5.809,0.15,-0.40,-0.06,0.43
5.819,0.17,-0.12,-0.19,0.28
5.829,0.28,0.24,0.24,0.44
5.839,0.41,0.39,-0.02,0.56
5.849,0.26,0.29,-0.25,0.46
5.860,0.06,-0.15,0.03,0.16
5.870,-0.19,-0.14,-0.24,0.33
5.880,-0.22,-0.07,0.23,0.33
5.890,-0.37,0.30,0.26,0.54
5.900,-0.24,0.45,-0.16,0.53
5.910,0.07,0.08,-0.15,0.18
5.920,0.19,-0.33,-0.03,0.38
5.930,0.07,-0.26,-0.24,0.36
5.940,0.04,-0.17,-0.08,0.20
5.950,0.19,-0.21,-0.05,0.29
5.960,0.17,0.11,-0.08,0.22
5.970,0.38,0.40,0.16,0.58
5.980,0.46,0.42,-0.19,0.65
5.991,0.14,-0.01,-0.10,0.17
6.001,-0.15,-0.16,-0.19,0.29
6.011,-0.35,-0.26,0.37,0.57
6.021,-0.33,0.27,0.09,0.44
6.031,-0.37,0.55,-0.02,0.67
6.041,0.10,0.03,-0.11,0.15
6.051,0.05,-0.34,-0.21,0.41
6.061,0.16,-0.30,-0.12,0.36
6.071,0.07,-0.11,-0.16,0.20
6.081,0.18,-0.10,-0.08,0.22
6.092,0.31,0.07,-0.03,0.31
6.101,0.47,0.19,0.14,0.52
6.112,0.32,0.35,-0.13,0.49
6.122,-0.10,0.20,-0.25,0.33
6.132,-0.03,-0.26,0.20,0.33
6.142,-0.32,-0.11,0.05,0.34
6.152,-0.23,0.19,0.20,0.36
6.162,-0.36,0.62,-0.02,0.71
6.172,0.08,0.13,-0.12,0.20
6.182,0.11,-0.36,-0.17,0.41
6.192,0.07,-0.36,-0.09,0.38
6.202,0.07,-0.15,-0.20,0.26
6.212,0.10,0.01,-0.01,0.11
6.223,0.18,0.08,-0.08,0.21
6.233,0.36,0.16,0.18,0.44
6.243,0.64,0.27,-0.14,0.71
6.253,0.01,0.23,-0.13,0.26
6.263,-0.22,-0.01,-0.19,0.29
6.273,-0.25,-0.31,0.49,0.63
6.283,-0.44,0.04,-0.05,0.44
6.293,-0.27,0.54,-0.20,0.64
6.303,-0.03,0.34,0.07,0.35
6.313,0.23,-0.39,-0.16,0.49
6.324,-0.07,-0.45,-0.26,0.53
6.333,0.27,-0.22,-0.10,0.36
6.344,0.15,0.01,0.10,0.18
6.354,0.30,0.14,-0.32,0.46
6.364,0.37,0.22,0.32,0.53
6.374,0.34,0.25,-0.16,0.45
6.384,0.21,0.12,-0.29,0.38
6.394,-0.28,0.05,0.12,0.30
6.404,-0.32,-0.17,0.24,0.43
6.414,-0.35,0.07,0.05,0.36
6.424,-0.28,0.45,-0.00,0.53
6.434,0.06,0.30,-0.17,0.34
6.444,0.17,-0.40,-0.03,0.43
6.454,0.05,-0.56,-0.26,0.62
6.464,0.09,-0.35,-0.22,0.42
6.475,0.16,0.04,0.02,0.17
6.485,0.26,0.27,-0.01,0.38
6.495,0.44,0.09,0.11,0.46
6.505,0.41,0.21,-0.26,0.53
6.515,0.07,0.21,-0.06,0.23
6.525,-0.13,0.03,-0.06,0.15
6.535,-0.33,-0.17,0.35,0.51
6.545,-0.52,0.10,0.04,0.53
6.555,-0.32,0.45,-0.11,0.56
6.565,0.12,0.21,0.01,0.24
6.576,0.07,-0.17,-0.28,0.34
6.586,0.27,-0.50,0.01,0.57
6.596,0.18,-0.38,-0.23,0.48
6.606,0.17,-0.07,-0.03,0.19
6.616,0.32,0.32,0.02,0.45
6.626,0.42,0.24,0.08,0.49
6.636,0.24,0.17,-0.25,0.39
6.646,-0.02,-0.02,-0.02,0.03
6.656,-0.06,-0.04,-0.08,0.10
6.666,-0.47,0.03,0.33,0.58
6.676,-0.43,0.27,0.12,0.52
6.687,-0.17,0.44,-0.24,0.53
6.697,-0.03,0.01,0.04,0.05
6.707,0.31,-0.26,-0.33,0.52
6.717,0.19,-0.57,0.14,0.61
6.727,0.01,-0.32,-0.45,0.55
6.737,0.19,0.04,0.04,0.20
6.747,0.36,0.45,0.17,0.60
6.757,0.42,0.34,-0.10,0.55
6.767,0.40,0.05,-0.18,0.44
6.777,-0.10,-0.02,-0.10,0.14
6.787,-0.04,-0.21,0.14,0.25
6.797,-0.55,0.22,0.18,0.62
6.808,-0.50,0.53,0.05,0.73
6.817,-0.11,0.36,-0.15,0.41
6.828,0.06,-0.29,-0.04,0.30
6.838,0.17,-0.32,-0.45,0.58
6.848,0.29,-0.44,0.17,0.56
6.858,0.15,-0.31,-0.20,0.39
6.868,0.13,0.03,-0.28,0.31
6.878,0.37,0.29,0.46,0.65
6.888,0.40,0.40,-0.34,0.66
6.898,0.24,0.12,-0.12,0.29
6.908,-0.07,-0.08,0.05,0.12
6.918,-0.25,-0.14,-0.07,0.30
6.928,-0.50,0.39,0.32,0.71
6.939,-0.29,0.57,-0.04,0.64
6.949,-0.22,0.19,-0.26,0.39
6.959,0.36,-0.43,-0.05,0.56
6.969,0.14,-0.43,-0.15,0.47
6.979,0.26,-0.28,-0.23,0.44
6.989,0.07,-0.23,0.07,0.25
6.999,0.09,0.13,-0.26,0.30
7.009,0.40,0.31,0.29,0.58
7.019,0.48,0.37,-0.09,0.62
7.029,0.18,0.09,-0.30,0.36
7.039,-0.13,-0.15,0.00,0.20
7.050,-0.25,-0.22,0.40,0.52
7.060,-0.64,0.40,-0.07,0.75
7.070,-0.34,0.61,-0.09,0.71
7.080,0.14,0.04,0.02,0.14
7.090,0.05,-0.36,-0.28,0.46
7.100,0.36,-0.46,-0.21,0.62
7.110,0.15,-0.22,0.04,0.27
7.120,0.14,-0.12,-0.18,0.25
7.130,0.18,0.07,-0.01,0.20
7.140,0.34,0.20,0.12,0.41
7.150,0.40,0.41,-0.27,0.63
7.161,0.08,0.20,0.01,0.22
7.171,-0.27,-0.11,-0.03,0.29
7.181,-0.27,-0.18,0.24,0.41
7.191,-0.50,0.46,0.01,0.68
7.201,-0.19,0.64,-0.17,0.69
7.211,0.18,-0.28,0.17,0.37
7.221,0.02,-0.40,-0.59,0.71
7.231,0.33,-0.40,0.05,0.52
7.241,0.13,-0.16,0.06,0.21
7.251,0.01,-0.03,-0.33,0.34
7.261,0.27,0.01,0.07,0.28
7.272,0.41,0.25,0.14,0.50
7.281,0.47,0.34,-0.23,0.63
7.292,0.05,0.26,-0.15,0.30
7.302,-0.27,-0.20,0.20,0.39
7.312,-0.42,-0.08,0.21,0.48
7.322,-0.55,0.40,-0.07,0.69
7.332,-0.20,0.58,-0.20,0.65
7.342,0.26,-0.08,0.20,0.34
7.352,0.21,-0.47,-0.31,0.60
7.362,0.14,-0.40,-0.29,0.51
7.372,0.23,-0.15,0.08,0.29
7.382,0.06,0.10,-0.15,0.19
7.392,0.22,0.07,0.05,0.24
7.403,0.40,0.16,0.06,0.44
7.413,0.35,0.29,-0.27,0.53
7.423,0.17,0.16,-0.06,0.24
7.433,-0.29,-0.13,0.07,0.33
7.443,-0.38,-0.11,0.29,0.49
7.453,-0.43,0.29,-0.13,0.53
7.463,-0.10,0.41,-0.06,0.43
7.473,0.11,0.06,-0.06,0.14
7.483,0.28,-0.47,-0.20,0.58
7.493,0.16,-0.48,-0.19,0.54
7.503,0.04,-0.15,-0.16,0.23
7.513,0.06,0.19,-0.06,0.21
7.524,0.38,0.16,0.12,0.43
7.534,0.43,0.22,-0.07,0.49
7.544,0.35,0.21,-0.22,0.46
7.554,0.01,0.04,-0.08,0.09
7.564,-0.27,-0.10,0.05,0.29
7.574,-0.34,-0.19,0.36,0.53
7.584,-0.46,0.34,-0.17,0.60
7.594,-0.07,0.36,-0.04,0.37
7.604,0.00,0.10,-0.05,0.11
7.614,0.18,-0.40,-0.17,0.47
7.625,0.17,-0.46,-0.22,0.54
7.635,0.18,-0.18,0.05,0.26
7.645,0.32,0.15,-0.18,0.40
7.655,0.30,0.28,0.21,0.46
7.665,0.48,0.11,-0.10,0.50
7.675,0.02,0.12,-0.21,0.24
7.685,-0.04,-0.04,-0.13,0.14
7.695,-0.23,-0.02,0.14,0.27
7.705,-0.27,-0.01,0.27,0.38
7.715,-0.31,0.32,-0.08,0.46
7.725,-0.09,0.28,-0.03,0.30
7.735,0.06,0.01,-0.19,0.20
7.745,0.08,-0.17,-0.16,0.24
7.756,0.24,-0.44,-0.00,0.50
7.766,0.05,-0.18,-0.36,0.40
7.776,0.23,0.18,0.16,0.33
7.786,0.35,0.42,0.06,0.55
7.796,0.43,0.15,-0.24,0.51
7.806,0.14,-0.03,0.03,0.15
7.816,-0.05,-0.23,0.00,0.23
7.826,-0.31,-0.00,-0.37,0.48
7.836,-0.36,0.19,0.71,0.82
7.846,-0.26,0.33,-0.12,0.43
7.856,-0.10,0.21,-0.32,0.39
7.866,0.12,-0.13,0.11,0.21
7.877,0.14,-0.11,-0.25,0.31
7.887,0.11,-0.28,-0.03,0.31
7.897,0.27,-0.34,-0.18,0.47
7.907,0.18,0.07,-0.04,0.20
7.917,0.36,0.33,0.11,0.50
7.927,0.39,0.33,-0.16,0.54
7.937,0.23,-0.05,-0.04,0.23
7.947,-0.21,-0.12,-0.24,0.34
7.957,-0.26,-0.05,0.10,0.28
7.967,-0.24,0.21,0.40,0.51
7.977,-0.32,0.35,-0.15,0.50
7.988,-0.06,0.11,-0.21,0.24
7.997,0.08,-0.24,-0.03,0.26
8.008,0.16,-0.20,-0.25,0.36
8.018,0.04,-0.12,-0.03,0.13
8.028,0.20,-0.20,-0.17,0.33
8.038,0.12,-0.06,0.03,0.13
8.048,0.45,0.24,0.01,0.51
8.058,0.48,0.43,-0.04,0.65
8.068,0.29,0.09,-0.14,0.34
8.078,-0.12,-0.22,-0.13,0.28
8.088,-0.43,-0.16,0.14,0.48
8.098,-0.28,0.16,0.16,0.36
8.109,-0.37,0.57,0.07,0.68
8.119,0.06,0.16,-0.01,0.17
8.129,-0.06,-0.26,-0.38,0.46
8.139,0.18,-0.33,0.00,0.38
8.149,0.09,-0.10,-0.08,0.16
8.159,0.10,-0.16,-0.19,0.27
8.169,0.30,-0.11,-0.03,0.32
8.179,0.43,0.16,0.18,0.50
8.189,0.40,0.30,-0.15,0.52
8.199,0.23,0.14,-0.20,0.34
8.209,-0.13,0.10,-0.02,0.17
8.219,-0.45,-0.04,0.11,0.46
8.229,-0.25,-0.01,0.27,0.37
8.240,-0.24,0.41,-0.17,0.51
8.250,-0.00,0.24,0.05,0.24
8.260,0.20,-0.30,-0.19,0.41
8.270,0.04,-0.38,-0.26,0.46
8.280,0.10,-0.20,0.03,0.22
8.290,0.01,0.04,-0.21,0.22
8.300,0.19,-0.02,-0.15,0.24
8.310,0.35,0.15,0.14,0.40
8.320,0.59,0.24,0.02,0.63
8.330,0.30,0.21,-0.20,0.42
8.340,-0.06,0.02,-0.16,0.17
8.350,-0.51,-0.11,0.23,0.57
8.361,-0.40,0.00,0.20,0.45
8.371,-0.34,0.34,-0.06,0.48
8.381,-0.06,0.44,-0.05,0.44
8.391,0.24,-0.21,-0.13,0.35
8.401,0.08,-0.52,-0.20,0.56
8.411,0.15,-0.35,-0.14,0.40
8.421,0.00,0.02,-0.09,0.09
8.431,0.32,0.14,-0.13,0.38
8.441,0.42,0.01,0.19,0.46
8.451,0.38,0.24,-0.23,0.51
8.461,0.21,0.16,-0.07,0.28
8.472,-0.11,0.05,-0.10,0.16
8.481,-0.37,-0.00,0.11,0.39
8.492,-0.38,0.04,0.29,0.48
8.502,-0.30,0.28,0.03,0.41
8.512,0.03,0.25,-0.21,0.33
8.522,0.07,-0.17,-0.10,0.21
8.532,0.19,-0.50,-0.09,0.55
8.542,0.04,-0.41,-0.10,0.43
8.552,0.10,-0.06,-0.27,0.30
8.562,0.22,0.22,0.10,0.32
8.572,0.53,0.13,0.10,0.55
8.582,0.33,0.18,-0.13,0.39
8.593,0.24,0.16,-0.15,0.33
8.603,-0.11,0.09,-0.09,0.17
8.613,-0.32,-0.03,0.17,0.37
8.623,-0.39,-0.03,0.31,0.50
8.633,-0.44,0.39,-0.30,0.66
8.643,0.12,0.11,0.08,0.18
8.653,0.11,-0.12,-0.27,0.32
8.663,0.16,-0.43,-0.13,0.48
8.673,0.13,-0.33,0.03,0.35
8.683,0.18,-0.14,-0.29,0.36
8.693,0.17,0.20,0.03,0.26
8.703,0.59,0.24,0.20,0.66
8.714,0.38,0.18,-0.22,0.48
8.724,0.10,0.06,-0.12,0.17
8.734,-0.18,-0.02,-0.05,0.19
8.744,-0.44,0.16,0.21,0.51
8.754,-0.23,0.12,0.16,0.31
8.764,-0.28,0.28,-0.08,0.40
8.774,-0.06,0.04,-0.14,0.15
8.784,0.08,-0.22,-0.19,0.30
8.794,0.26,-0.36,-0.19,0.49
8.804,0.11,-0.31,-0.01,0.33
8.814,0.09,-0.10,-0.22,0.26
8.825,0.28,0.25,-0.06,0.38
8.834,0.51,0.33,0.27,0.67
8.845,0.37,0.14,-0.34,0.52
8.855,-0.01,0.01,-0.09,0.09
8.865,-0.22,-0.03,-0.04,0.23
8.875,-0.32,0.13,0.34,0.49
8.885,-0.45,0.20,0.18,0.53
8.895,-0.19,0.33,-0.41,0.56
8.905,0.08,-0.15,0.16,0.24
8.915,0.18,-0.28,-0.35,0.48
8.925,0.19,-0.25,-0.10,0.33
8.935,0.12,-0.31,-0.06,0.34
8.946,0.02,-0.12,-0.26,0.28
8.956,0.48,0.13,0.09,0.51
8.966,0.47,0.39,0.04,0.61
8.976,0.31,0.19,-0.22,0.42
8.986,-0.05,0.13,-0.17,0.22
8.996,-0.38,0.01,0.03,0.38
9.006,-0.31,-0.07,0.38,0.50
9.016,-0.49,0.33,0.00,0.59
9.026,0.05,0.22,-0.32,0.39
9.036,-0.11,-0.13,0.21,0.27
9.046,0.30,-0.44,-0.29,0.61
9.056,0.16,-0.28,-0.24,0.40
9.067,0.22,-0.25,-0.06,0.33
9.077,-0.04,-0.05,0.03,0.07
9.087,0.35,0.22,-0.05,0.41
9.097,0.49,0.38,0.03,0.62
9.107,0.38,0.25,-0.22,0.50
9.117,-0.06,-0.14,0.05,0.16
9.127,-0.36,-0.10,-0.14,0.41
9.137,-0.32,0.09,0.47,0.57
9.147,-0.52,0.59,-0.18,0.80
9.157,0.08,0.14,-0.16,0.23
9.167,-0.03,-0.26,-0.04,0.27
9.178,0.23,-0.38,-0.27,0.52
9.188,0.17,-0.25,-0.04,0.30
9.198,0.14,-0.15,-0.18,0.27
9.208,0.23,0.02,-0.06,0.24
9.218,0.32,0.14,0.22,0.41
9.228,0.52,0.35,-0.33,0.71
9.238,0.13,0.27,0.03,0.30
9.248,-0.10,-0.07,-0.12,0.17
9.258,-0.38,-0.16,0.16,0.44
9.268,-0.42,0.18,0.19,0.50
9.278,-0.33,0.69,-0.24,0.80
9.288,0.09,0.04,0.15,0.18
9.298,0.13,-0.52,-0.24,0.58
9.309,0.15,-0.43,-0.31,0.55
9.319,0.16,-0.20,0.12,0.28
9.329,0.01,0.07,-0.27,0.27
9.339,0.11,-0.03,0.05,0.13
9.349,0.42,0.11,0.09,0.45
9.359,0.46,0.30,-0.11,0.56
9.369,0.28,0.27,-0.16,0.43
9.379,-0.12,-0.14,0.02,0.18
9.389,-0.48,-0.05,0.27,0.56
9.399,-0.49,0.24,0.04,0.54
9.410,-0.19,0.52,-0.17,0.58
9.420,-0.03,0.08,-0.01,0.09
9.430,0.32,-0.40,-0.33,0.61
9.440,0.13,-0.46,0.00,0.48
9.450,0.11,-0.20,-0.21,0.31
9.460,0.04,0.09,-0.10,0.14
9.470,0.35,0.06,0.02,0.36
9.480,0.39,0.16,0.08,0.43
9.490,0.42,0.21,-0.23,0.52
9.500,0.11,0.23,-0.19,0.32
9.510,-0.28,-0.06,0.17,0.33
9.520,-0.33,-0.23,0.25,0.47
9.530,-0.40,0.15,-0.07,0.43
9.541,-0.16,0.41,-0.00,0.44
9.550,0.09,0.16,-0.04,0.19
9.561,0.09,-0.38,-0.20,0.44
9.571,0.05,-0.48,-0.19,0.51
9.581,0.11,-0.24,-0.06,0.27
9.591,0.12,0.10,-0.12,0.20
9.601,0.29,0.28,-0.05,0.40
9.611,0.42,0.14,0.19,0.48
9.621,0.50,0.15,-0.30,0.60
9.631,0.06,0.06,-0.07,0.11
9.641,-0.18,0.03,-0.02,0.18
9.652,-0.45,-0.16,0.31,0.57
9.662,-0.30,0.11,-0.03,0.32
9.672,-0.26,0.41,-0.10,0.49
9.682,0.07,0.16,-0.03,0.18
9.692,0.14,-0.24,-0.13,0.31
9.702,0.11,-0.47,-0.17,0.51
9.712,0.13,-0.26,-0.22,0.37
9.722,0.22,0.07,0.06,0.24
9.732,0.31,0.34,0.00,0.46
9.742,0.47,0.13,0.06,0.49
9.752,0.30,0.08,-0.26,0.40
9.762,-0.01,0.01,-0.13,0.13
9.772,-0.24,-0.01,0.02,0.24
9.783,-0.28,-0.05,0.26,0.39
9.793,-0.25,0.18,0.02,0.31
9.803,-0.21,0.39,-0.12,0.46
9.813,0.09,0.07,-0.09,0.15
9.823,0.06,-0.19,-0.19,0.27
9.833,0.09,-0.35,-0.13,0.38
9.843,0.11,-0.28,-0.19,0.35
9.853,0.25,0.06,-0.12,0.28
9.863,0.36,0.37,0.14,0.53
9.873,0.42,0.30,-0.12,0.53
9.883,0.25,-0.07,0.09,0.27
9.894,0.01,-0.17,-0.37,0.41
9.904,-0.28,-0.14,-0.02,0.31
9.914,-0.21,0.15,0.47,0.53
9.924,-0.27,0.30,-0.04,0.41
9.934,-0.29,0.32,-0.27,0.51
9.944,0.04,0.04,0.05,0.07
9.954,0.09,-0.14,-0.27,0.32
9.964,0.11,-0.34,-0.07,0.36
9.974,0.22,-0.37,-0.17,0.47
9.984,0.15,-0.08,-0.07,0.18
9.994,0.44,0.30,0.08,0.53
10.004,0.39,0.44,-0.08,0.60
10.014,0.24,0.09,-0.15,0.30
10.025,-0.03,-0.18,-0.20,0.27
10.035,-0.31,-0.20,0.11,0.39
10.045,-0.32,0.21,0.17,0.42
10.055,-0.18,0.36,0.05,0.41
10.065,-0.11,0.15,-0.01,0.18
10.075,-0.03,-0.08,-0.34,0.35
10.085,0.18,-0.33,0.06,0.38
10.095,0.04,-0.15,-0.25,0.29
10.105,0.06,-0.17,-0.18,0.25
10.115,0.14,-0.06,-0.03,0.16
10.125,0.34,0.21,0.09,0.41
10.136,0.54,0.34,-0.10,0.65
10.146,0.36,0.26,-0.14,0.46
10.156,-0.02,-0.19,-0.08,0.21
10.166,-0.32,-0.28,-0.11,0.44
10.176,-0.37,-0.04,0.41,0.55
10.186,-0.31,0.64,-0.15,0.73
10.196,-0.07,0.38,0.16,0.42
10.206,0.01,-0.23,-0.35,0.42
10.216,-0.02,-0.37,-0.23,0.43
10.226,0.19,-0.26,0.05,0.32
10.236,-0.01,-0.09,-0.26,0.27
10.246,0.37,-0.21,0.08,0.43
10.257,0.24,0.19,-0.18,0.35
10.267,0.67,0.29,0.11,0.74
10.277,0.27,0.16,-0.14,0.34
10.287,-0.16,0.12,-0.30,0.36
10.297,-0.29,-0.07,0.21,0.36
10.307,-0.27,-0.03,0.17,0.32
10.317,-0.29,0.34,-0.05,0.45
10.327,-0.15,0.42,0.01,0.45
10.337,0.09,-0.20,-0.09,0.24
10.347,0.03,-0.43,-0.34,0.55
10.357,0.18,-0.32,0.06,0.38
10.368,0.06,-0.02,-0.20,0.21
10.378,0.11,0.01,-0.12,0.16
10.388,0.36,-0.00,0.09,0.37
10.398,0.46,0.23,-0.01,0.51
10.408,0.45,0.26,-0.22,0.56
10.418,0.00,0.15,-0.03,0.16
10.428,-0.27,-0.09,-0.01,0.29
10.438,-0.48,-0.03,0.27,0.55
10.448,-0.37,0.18,0.14,0.43
10.458,-0.16,0.48,-0.26,0.57
10.468,0.09,-0.01,0.01,0.09
10.478,0.19,-0.50,-0.20,0.57
10.489,0.11,-0.40,-0.14,0.44
10.498,0.11,-0.10,-0.13,0.19
10.509,0.10,0.06,-0.12,0.17
10.519,0.41,0.02,0.15,0.44
10.529,0.48,0.22,-0.11,0.54
10.539,0.33,0.21,0.01,0.39
10.549,0.00,0.13,-0.27,0.30
10.559,-0.47,0.12,0.13,0.50
10.569,-0.32,0.01,0.33,0.46
10.579,-0.34,0.11,-0.09,0.37
10.589,-0.13,0.25,-0.13,0.31
10.599,0.15,-0.04,-0.08,0.17
10.610,0.19,-0.46,-0.17,0.53
10.620,0.03,-0.44,-0.16,0.47
10.630,0.12,-0.17,-0.12,0.24
10.640,0.07,0.12,-0.06,0.15
10.650,0.36,0.10,0.03,0.37
10.660,0.57,0.12,0.01,0.58
10.670,0.37,0.18,-0.17,0.45
10.680,-0.07,0.13,-0.13,0.20
10.690,-0.36,0.01,0.05,0.36
10.700,-0.29,0.01,0.31,0.43
10.710,-0.45,0.21,-0.04,0.49
10.720,-0.19,0.27,-0.25,0.41
10.731,0.12,-0.06,0.01,0.14
10.741,0.09,-0.32,-0.18,0.37
10.751,0.17,-0.42,-0.25,0.52
10.761,0.15,-0.22,-0.05,0.27
10.771,0.27,0.06,-0.09,0.29
10.781,0.36,0.23,0.04,0.43
10.791,0.55,0.12,0.05,0.56
10.801,0.14,0.16,-0.37,0.43
10.811,-0.18,-0.00,0.07,0.20
10.821,-0.33,0.12,0.15,0.38
10.831,-0.34,0.14,0.21,0.42
10.841,-0.27,0.29,-0.00,0.40
10.852,-0.02,0.09,-0.12,0.15
10.861,0.07,-0.27,-0.17,0.33
10.872,0.10,-0.29,-0.15,0.34
10.882,0.20,-0.40,-0.07,0.45
10.892,0.01,-0.14,-0.23,0.27
10.902,0.29,0.14,-0.03,0.33
10.912,0.44,0.40,0.12,0.60
10.922,0.47,0.20,-0.11,0.52
10.932,0.19,0.02,-0.27,0.33
10.942,-0.19,-0.09,0.02,0.21
10.953,-0.33,0.02,0.14,0.36
10.963,-0.40,0.27,0.24,0.54
10.973,-0.24,0.31,-0.12,0.41
10.983,-0.07,0.08,-0.22,0.24
10.993,0.12,-0.27,-0.04,0.30
11.003,0.08,-0.30,-0.20,0.37
11.013,0.19,-0.43,-0.16,0.50
11.023,0.14,-0.18,-0.23,0.32
11.033,0.37,0.08,0.13,0.40
11.043,0.50,0.40,-0.06,0.65
11.053,0.30,0.18,-0.06,0.36
11.063,0.06,-0.04,-0.28,0.29
11.073,-0.20,-0.02,-0.16,0.26
11.083,-0.51,0.19,0.71,0.89
11.094,-0.24,0.45,-0.24,0.57
11.104,-0.14,0.09,0.26,0.31
11.114,0.16,-0.23,-0.55,0.62
11.124,0.06,-0.56,0.05,0.57
11.134,0.21,-0.16,-0.34,0.43
11.144,-0.04,-0.05,0.03,0.07
11.154,0.19,-0.10,-0.29,0.36
11.164,0.22,0.05,0.11,0.25
11.174,0.56,0.30,-0.01,0.64
11.184,0.39,0.27,-0.14,0.49
11.195,0.04,-0.08,-0.05,0.10
11.205,-0.31,-0.19,-0.24,0.44
11.215,-0.41,0.04,0.61,0.74
11.225,-0.36,0.57,-0.12,0.69
11.235,-0.06,0.29,-0.19,0.35
11.245,0.03,-0.22,-0.13,0.26
11.255,0.13,-0.37,-0.22,0.45
