time,ax,ay,az,atotal
0.000,0.23,-0.07,0.06,0.25
0.010,0.30,0.30,-0.03,0.43
0.020,0.44,0.29,0.16,0.55
0.030,0.39,0.19,-0.49,0.65
0.040,0.12,-0.04,0.10,0.16
0.050,-0.38,-0.09,0.07,0.40
0.060,-0.36,0.07,0.13,0.39
0.071,-0.31,0.17,0.24,0.43
0.081,-0.24,0.25,-0.27,0.45
0.091,-0.01,-0.20,-0.12,0.23
0.101,0.30,-0.42,-0.18,0.55
0.111,0.16,-0.31,-0.13,0.37
0.121,0.27,-0.29,-0.14,0.42
0.131,0.23,-0.12,-0.04,0.26
0.141,0.34,0.30,-0.10,0.46
0.151,0.49,0.43,0.11,0.66
0.161,0.33,0.15,-0.19,0.41
0.171,-0.23,0.07,-0.18,0.30
0.182,-0.35,-0.15,0.22,0.44
0.192,-0.37,0.12,0.23,0.45
0.202,-0.35,0.29,-0.08,0.46
0.212,0.11,-0.06,-0.13,0.18
0.222,0.09,-0.47,0.03,0.48
0.232,0.22,-0.31,-0.33,0.50
0.242,0.15,-0.12,0.07,0.21
0.252,0.16,-0.18,-0.13,0.27
0.262,0.07,-0.04,-0.16,0.18
0.272,0.44,0.18,0.28,0.55
0.282,0.57,0.36,-0.18,0.70
0.292,0.25,0.16,-0.23,0.37
0.303,-0.06,-0.08,0.16,0.19
0.313,-0.48,0.04,-0.05,0.48
0.323,-0.43,0.21,0.37,0.60
0.333,-0.36,0.39,-0.15,0.56
0.343,0.02,-0.17,-0.15,0.23
0.353,0.17,-0.47,-0.06,0.51
0.363,0.21,-0.36,-0.17,0.45
0.373,0.12,-0.13,-0.12,0.21
0.383,0.21,-0.23,-0.08,0.32
0.393,0.17,-0.10,-0.16,0.25
0.403,0.40,0.18,0.22,0.49
0.414,0.57,0.39,-0.27,0.74
0.424,0.24,0.18,-0.03,0.30
0.434,-0.40,0.27,-0.05,0.48
0.444,-0.55,0.11,0.32,0.64
0.454,-0.50,0.12,-0.01,0.51
0.464,-0.11,0.13,-0.18,0.25
0.474,0.20,-0.39,0.06,0.44
0.484,0.23,-0.48,-0.36,0.64
0.494,0.20,-0.28,-0.10,0.36
0.504,0.11,-0.02,0.04,0.12
0.514,0.02,0.08,-0.29,0.31
0.524,0.24,-0.10,0.09,0.27
0.535,0.38,0.13,0.22,0.46
0.545,0.51,0.26,-0.28,0.64
0.555,0.29,0.23,-0.09,0.38
0.565,-0.29,-0.00,0.16,0.33
0.575,-0.48,-0.09,0.18,0.52
0.585,-0.49,0.13,0.11,0.52
0.595,-0.28,0.44,-0.39,0.65
0.605,0.22,-0.08,0.23,0.33
0.615,0.21,-0.50,-0.25,0.60
0.625,0.10,-0.46,-0.32,0.57
0.635,0.25,-0.22,0.08,0.35
0.645,0.12,0.05,-0.18,0.22
0.656,0.28,-0.01,0.00,0.28
0.666,0.43,0.19,0.18,0.50
0.676,0.39,0.26,-0.29,0.55
0.686,0.14,0.20,-0.05,0.25
0.696,-0.25,-0.03,0.13,0.28
0.706,-0.43,-0.13,0.14,0.47
0.716,-0.43,0.13,0.01,0.45
0.726,-0.16,0.32,-0.14,0.39
0.736,0.15,0.06,-0.11,0.19
0.746,0.29,-0.45,-0.08,0.54
0.756,0.11,-0.48,-0.28,0.57
0.767,0.16,-0.26,-0.00,0.31
0.777,0.08,0.06,-0.08,0.13
0.787,0.25,0.15,-0.05,0.30
0.797,0.45,0.11,0.28,0.54
0.807,0.45,0.18,-0.37,0.61
0.817,0.06,0.07,-0.09,0.13
0.827,-0.19,-0.05,0.09,0.22
0.837,-0.41,-0.17,0.38,0.59
0.847,-0.52,0.34,-0.27,0.68
0.857,-0.14,0.41,0.15,0.46
0.867,0.18,0.02,-0.06,0.19
0.877,0.04,-0.39,-0.30,0.49
0.888,0.24,-0.57,-0.12,0.64
0.898,0.28,-0.31,-0.04,0.41
0.908,0.22,0.06,-0.20,0.30
0.918,0.40,0.30,0.24,0.55
0.928,0.30,0.29,-0.07,0.42
0.938,0.48,0.07,-0.49,0.69
0.948,-0.20,-0.06,0.28,0.35
0.958,-0.16,0.02,-0.23,0.28
0.968,-0.42,-0.05,0.47,0.63
0.978,-0.21,0.21,-0.04,0.30
0.988,-0.21,0.30,-0.17,0.41
0.998,0.16,-0.02,-0.02,0.16
1.009,0.11,-0.26,-0.09,0.29
1.019,0.11,-0.45,-0.20,0.51
1.029,0.10,-0.26,-0.19,0.34
1.039,0.34,0.05,-0.03,0.34
1.049,0.44,0.30,0.03,0.53
1.059,0.43,0.26,-0.10,0.52
1.069,0.23,-0.15,-0.34,0.44
1.079,-0.20,-0.14,0.05,0.25
1.089,-0.09,-0.10,0.08,0.15
1.099,-0.37,0.24,0.11,0.46
1.109,-0.27,0.34,0.12,0.45
1.119,-0.16,0.30,-0.19,0.39
1.130,0.01,-0.06,-0.01,0.06
1.140,0.13,-0.22,-0.26,0.36
1.150,0.25,-0.48,0.01,0.55
1.160,0.24,-0.38,-0.19,0.49
1.170,0.19,-0.04,-0.05,0.20
1.180,0.48,0.25,0.12,0.55
1.190,0.36,0.40,-0.04,0.54
1.200,0.19,-0.05,-0.18,0.26
1.210,-0.11,-0.17,-0.18,0.27
1.220,-0.36,-0.03,0.13,0.38
1.230,-0.19,0.27,0.24,0.41
1.240,-0.30,0.40,0.03,0.50
1.251,-0.02,0.08,-0.13,0.16
1.261,0.03,-0.25,-0.18,0.31
1.271,0.19,-0.36,-0.12,0.42
1.281,0.12,-0.18,-0.15,0.26
1.291,0.16,-0.20,0.03,0.26
1.301,0.18,-0.05,-0.13,0.23
1.311,0.36,0.08,0.08,0.37
1.321,0.44,0.34,-0.07,0.56
1.331,0.30,0.13,-0.05,0.33
1.341,0.01,-0.26,-0.07,0.27
1.351,-0.32,-0.22,-0.04,0.39
1.361,-0.34,0.22,0.35,0.54
1.371,-0.35,0.57,0.04,0.67
1.382,-0.15,0.26,-0.07,0.31
1.392,-0.01,-0.21,-0.29,0.36
1.402,0.24,-0.39,0.03,0.46
1.412,0.26,-0.25,-0.20,0.41
1.422,0.14,-0.20,-0.17,0.30
1.432,0.26,-0.20,0.04,0.33
1.442,0.35,0.08,-0.04,0.36
1.452,0.48,0.28,0.06,0.56
1.462,0.36,0.23,-0.20,0.47
1.472,-0.13,0.05,-0.04,0.15
1.483,-0.39,-0.10,0.01,0.40
1.493,-0.40,-0.03,0.37,0.55
1.503,-0.35,0.47,-0.15,0.60
1.513,-0.08,0.33,-0.10,0.36
1.523,0.22,-0.41,0.04,0.47
1.533,0.10,-0.41,-0.50,0.65
1.543,0.32,-0.31,0.04,0.45
1.553,-0.00,-0.06,-0.16,0.17
1.563,0.18,-0.03,-0.25,0.31
1.573,0.25,-0.02,0.51,0.57
1.583,0.37,0.27,-0.38,0.60
1.593,0.43,0.24,-0.16,0.52
1.604,0.11,0.12,0.18,0.25
1.614,-0.28,-0.09,-0.11,0.31
1.624,-0.46,-0.11,0.29,0.56
1.634,-0.41,0.29,0.19,0.54
1.644,-0.18,0.47,-0.30,0.58
1.654,0.10,-0.21,0.03,0.24
1.664,0.21,-0.58,-0.26,0.67
1.674,0.21,-0.36,-0.22,0.47
1.684,0.25,-0.06,0.04,0.26
1.694,0.25,0.02,-0.17,0.30
1.704,0.33,-0.01,0.10,0.34
1.715,0.47,0.24,-0.17,0.56
1.725,0.25,0.19,0.04,0.31
1.735,0.02,0.13,-0.20,0.24
1.745,-0.43,-0.07,0.12,0.45
1.755,-0.35,-0.06,0.27,0.45
1.765,-0.29,0.18,-0.02,0.34
1.775,-0.07,0.29,-0.32,0.43
1.785,0.14,-0.08,0.08,0.18
1.795,0.27,-0.55,-0.14,0.63
1.805,0.03,-0.41,-0.27,0.49
1.815,0.22,-0.17,0.05,0.28
1.826,0.16,0.18,-0.19,0.31
1.835,0.39,0.11,0.10,0.42
1.845,0.51,0.08,0.09,0.53
1.856,0.29,0.07,-0.41,0.51
1.866,-0.06,0.10,0.01,0.11
1.876,-0.32,0.14,0.26,0.44
1.886,-0.38,0.04,0.23,0.45
1.896,-0.47,0.13,-0.09,0.50
1.906,-0.09,0.11,-0.20,0.24
1.916,0.09,-0.12,0.03,0.15
1.926,0.27,-0.42,-0.13,0.52
1.936,0.21,-0.36,-0.31,0.52
1.946,0.27,-0.11,0.02,0.29
1.957,0.25,0.08,-0.01,0.27
1.967,0.38,0.21,-0.12,0.45
1.977,0.41,0.12,0.19,0.47
1.987,0.17,0.10,-0.45,0.49
1.997,-0.28,0.03,0.06,0.29
2.007,-0.36,0.13,0.20,0.43
2.017,-0.36,0.10,0.16,0.41
2.027,-0.22,0.18,-0.10,0.30
2.037,0.01,-0.02,-0.03,0.04
2.047,0.19,-0.15,-0.27,0.36
2.057,0.23,-0.35,0.02,0.42
2.067,0.18,-0.43,-0.20,0.51
2.078,0.01,-0.16,-0.17,0.24
2.088,0.32,0.12,0.11,0.36
2.098,0.47,0.35,0.02,0.59
2.108,0.48,0.16,0.00,0.50
2.118,0.18,0.07,-0.28,0.34
2.128,-0.21,-0.01,-0.01,0.21
2.138,-0.35,0.09,0.33,0.49
2.148,-0.42,0.17,0.15,0.48
2.158,-0.34,0.20,-0.27,0.48
2.168,0.04,-0.13,-0.01,0.14
2.178,0.19,-0.32,-0.15,0.40
2.188,0.17,-0.18,-0.29,0.38
2.199,0.28,-0.31,0.09,0.43
2.209,0.20,-0.13,-0.37,0.44
2.219,0.39,0.08,0.14,0.43
2.229,0.43,0.32,0.12,0.55
2.239,0.41,0.14,-0.32,0.53
2.249,-0.26,0.04,-0.03,0.27
2.259,-0.17,-0.10,0.02,0.20
2.269,-0.39,0.13,0.25,0.48
2.279,-0.29,0.37,0.24,0.53
2.290,-0.01,0.07,-0.14,0.16
2.299,-0.01,-0.28,-0.33,0.44
2.309,0.24,-0.42,0.09,0.49
2.320,0.07,-0.08,-0.20,0.23
2.330,0.06,-0.17,-0.17,0.25
2.340,0.17,-0.19,-0.14,0.29
2.350,0.39,0.07,0.07,0.40
2.360,0.63,0.34,0.08,0.72
2.370,0.46,0.19,-0.24,0.56
2.380,-0.08,-0.03,-0.26,0.27
2.390,-0.45,-0.09,0.32,0.56
2.400,-0.40,0.09,0.18,0.45
2.410,-0.50,0.51,-0.07,0.72
2.421,-0.00,0.10,0.03,0.10
2.431,0.14,-0.35,-0.30,0.49
2.441,0.25,-0.43,-0.10,0.51
2.451,0.20,-0.19,0.01,0.27
2.461,0.14,-0.07,-0.24,0.29
2.471,0.23,-0.17,0.02,0.29
2.481,0.37,0.06,0.06,0.38
2.491,0.42,0.33,-0.03,0.53
2.501,0.33,0.24,-0.17,0.44
2.511,-0.25,0.06,0.03,0.26
2.521,-0.48,0.00,0.18,0.52
2.531,-0.44,0.14,0.16,0.49
2.542,-0.18,0.42,-0.21,0.50
2.552,0.16,0.01,0.17,0.23
2.562,0.08,-0.41,-0.28,0.50
2.572,0.16,-0.52,-0.18,0.57
2.582,0.11,-0.17,-0.05,0.21
2.592,0.11,0.04,-0.10,0.15
2.602,0.23,-0.12,-0.09,0.28
2.612,0.45,0.07,0.18,0.49
2.622,0.50,0.27,-0.14,0.59
2.632,0.30,0.20,-0.13,0.38
2.642,-0.15,0.06,-0.02,0.16
2.653,-0.44,-0.06,0.38,0.58
2.662,-0.70,0.30,-0.14,0.78
2.673,-0.09,0.38,0.13,0.41
2.683,-0.08,0.15,-0.11,0.20
2.693,0.27,-0.45,-0.25,0.58
2.703,0.26,-0.61,-0.16,0.68
2.713,0.22,-0.30,-0.12,0.39
2.723,0.05,0.09,-0.10,0.14
2.733,0.26,0.04,0.05,0.27
2.743,0.45,0.10,-0.05,0.46
2.753,0.44,0.20,-0.08,0.49
2.763,0.25,0.14,-0.11,0.31
2.773,-0.37,0.03,-0.04,0.38
2.784,-0.33,-0.15,0.30,0.47
2.794,-0.22,0.22,-0.25,0.40
2.804,-0.45,0.43,0.65,0.90
2.814,0.34,0.12,-0.42,0.55
2.824,-0.10,-0.35,-0.32,0.49
2.834,0.31,-0.58,0.13,0.67
2.844,0.16,-0.33,-0.17,0.40
2.854,0.13,-0.07,-0.12,0.19
2.864,0.18,0.15,0.13,0.27
2.874,0.65,0.21,-0.30,0.75
2.884,0.34,0.23,0.05,0.41
2.894,0.18,0.02,0.02,0.18
2.905,-0.21,0.03,-0.34,0.40
2.915,-0.40,-0.14,0.44,0.61
2.925,-0.37,0.15,0.12,0.42
2.935,-0.36,0.38,-0.19,0.56
2.945,0.20,0.13,-0.05,0.24
2.955,0.07,-0.29,-0.01,0.30
2.965,0.15,-0.51,-0.39,0.66
2.975,0.20,-0.38,0.05,0.43
2.985,0.33,-0.03,-0.12,0.36
2.995,0.22,0.28,-0.04,0.36
3.005,0.66,0.25,-0.09,0.71
3.016,0.21,0.17,-0.09,0.29
3.026,0.08,-0.01,-0.18,0.20
3.036,-0.19,-0.05,-0.02,0.20
3.046,-0.47,-0.05,0.36,0.60
3.056,-0.16,0.10,-0.02,0.19
3.066,-0.25,0.35,-0.15,0.45
3.076,-0.02,0.09,0.12,0.15
3.086,0.16,-0.14,-0.35,0.41
3.096,0.08,-0.41,0.06,0.43
3.106,0.18,-0.36,-0.25,0.47
3.116,0.17,-0.17,0.07,0.25
3.126,0.32,0.32,-0.08,0.46
3.137,0.55,0.38,-0.03,0.66
3.147,0.31,0.01,-0.26,0.40
3.157,0.05,-0.09,0.07,0.12
3.167,-0.18,-0.04,-0.14,0.23
3.177,-0.35,0.06,0.38,0.52
3.187,-0.18,0.25,0.04,0.31
3.197,-0.23,0.25,-0.06,0.35
3.207,-0.01,0.02,-0.12,0.12
3.217,0.08,-0.22,-0.08,0.24
3.227,0.18,-0.33,-0.16,0.41
3.237,0.26,-0.35,-0.04,0.44
3.247,0.18,-0.22,0.09,0.30
3.258,0.35,0.17,-0.19,0.43
3.268,0.61,0.48,-0.28,0.82
3.278,0.13,0.23,0.41,0.49
3.288,0.01,-0.17,-0.28,0.33
3.298,-0.36,-0.20,-0.21,0.46
3.308,-0.21,0.03,0.53,0.57
3.318,-0.17,0.32,-0.04,0.37
3.328,-0.15,0.26,-0.20,0.36
3.338,0.09,-0.08,0.01,0.12
3.348,0.17,-0.31,-0.22,0.41
3.358,0.08,-0.21,-0.20,0.30
3.368,0.16,-0.24,-0.04,0.29
3.379,0.16,-0.17,0.18,0.30
3.389,0.42,0.09,-0.40,0.59
3.399,0.50,0.40,-0.22,0.68
3.409,0.33,0.26,0.49,0.64
3.419,0.11,-0.09,-0.37,0.40
3.429,-0.40,-0.25,-0.28,0.55
3.439,-0.22,-0.19,0.70,0.75
3.449,-0.32,0.47,-0.13,0.58
3.459,-0.17,0.34,-0.06,0.39
3.469,0.01,-0.12,-0.06,0.13
3.479,-0.01,-0.34,-0.27,0.43
3.489,0.25,-0.19,-0.38,0.50
3.500,0.18,-0.18,0.40,0.47
3.510,0.15,-0.28,-0.21,0.38
3.520,0.42,0.04,-0.44,0.61
3.530,0.57,0.34,0.05,0.67
3.540,0.35,0.18,0.21,0.45
3.550,0.01,0.01,-0.37,0.37
3.560,-0.50,0.05,0.06,0.50
3.570,-0.46,0.38,0.31,0.67
3.580,-0.25,0.17,0.15,0.34
3.590,-0.13,0.22,-0.30,0.40
3.600,0.28,-0.41,0.23,0.55
3.611,0.18,-0.48,-0.33,0.61
3.621,0.13,-0.28,-0.23,0.38
3.631,0.10,0.01,0.13,0.17
3.641,-0.02,-0.07,0.13,0.15
3.651,0.33,0.01,-0.63,0.71
3.661,0.63,0.27,0.04,0.68
3.671,0.47,0.10,0.28,0.55
3.681,0.07,0.07,-0.35,0.37
3.691,-0.45,0.02,0.04,0.45
3.701,-0.60,0.33,0.43,0.81
3.711,-0.24,0.14,0.02,0.28
3.721,-0.10,0.09,-0.11,0.17
3.732,0.18,-0.09,-0.16,0.25
3.742,0.22,-0.48,-0.05,0.53
3.752,0.08,-0.33,-0.21,0.40
3.762,0.12,-0.08,-0.06,0.15
3.772,0.12,0.04,0.13,0.18
3.782,0.42,0.05,-0.38,0.57
3.792,0.55,0.13,0.02,0.56
3.802,0.33,0.22,-0.04,0.40
3.812,0.08,0.02,0.09,0.12
3.822,-0.47,0.14,-0.29,0.57
3.832,-0.39,-0.12,0.54,0.68
3.843,-0.24,0.13,-0.08,0.29
3.853,-0.10,0.28,-0.06,0.31
3.863,0.19,-0.08,0.01,0.21
3.873,0.12,-0.48,-0.34,0.60
3.883,0.07,-0.36,-0.12,0.39
3.893,0.18,-0.18,0.06,0.26
3.903,0.06,0.05,-0.13,0.15
3.913,0.46,0.14,-0.17,0.51
3.923,0.63,0.16,-0.07,0.65
3.933,0.28,0.05,0.07,0.29
3.943,0.13,-0.12,-0.18,0.26
3.954,-0.55,0.17,-0.10,0.59
3.963,-0.37,0.29,0.43,0.64
3.974,-0.43,0.23,0.06,0.49
3.984,-0.18,0.06,-0.18,0.26
3.994,0.19,-0.19,-0.16,0.31
4.004,0.22,-0.32,-0.08,0.40
4.014,0.23,-0.39,-0.15,0.47
4.024,0.05,-0.23,0.06,0.25
4.034,0.21,-0.11,0.04,0.24
4.044,0.54,0.35,-0.54,0.84
4.054,0.60,0.18,0.19,0.66
4.064,0.13,0.03,-0.03,0.13
4.074,-0.12,-0.07,-0.08,0.16
4.084,-0.53,0.31,-0.05,0.62
4.095,-0.47,0.39,0.45,0.76
4.105,-0.25,0.16,-0.08,0.31
4.115,0.05,-0.09,-0.12,0.15
4.125,0.30,-0.29,-0.26,0.49
4.135,0.18,-0.36,0.04,0.40
4.145,0.22,-0.41,-0.26,0.54
4.155,-0.16,-0.18,-0.01,0.24
4.165,0.29,-0.04,0.12,0.31
4.175,0.58,0.43,-0.54,0.90
4.185,0.45,0.06,0.55,0.71
4.195,0.22,0.09,-0.50,0.56
4.206,-0.26,-0.06,0.10,0.29
4.216,-0.30,0.26,0.06,0.40
4.226,-0.43,0.24,0.42,0.64
4.236,-0.25,0.08,-0.22,0.34
4.246,-0.05,-0.07,-0.20,0.22
4.256,0.29,-0.32,-0.04,0.43
4.266,0.19,-0.24,-0.25,0.39
4.276,0.17,-0.30,-0.04,0.35
4.286,0.16,-0.20,-0.16,0.30
4.296,0.30,-0.01,-0.03,0.30
4.307,0.51,0.27,0.13,0.59
4.316,0.40,0.22,-0.06,0.45
4.326,0.08,0.06,-0.34,0.35
4.337,-0.43,0.08,0.19,0.48
4.347,-0.40,0.14,0.25,0.49
4.357,-0.44,0.43,0.05,0.61
4.367,-0.05,0.15,0.05,0.17
4.377,0.14,-0.30,-0.29,0.44
4.387,0.25,-0.44,-0.11,0.52
4.397,0.27,-0.24,-0.12,0.38
4.407,-0.02,-0.17,-0.10,0.20
4.417,0.11,-0.25,-0.08,0.28
4.427,0.24,-0.03,-0.09,0.26
4.438,0.54,0.31,0.10,0.63
4.448,0.55,0.28,-0.04,0.62
4.458,0.04,0.07,-0.24,0.25
4.468,-0.38,-0.04,0.07,0.39
4.478,-0.40,0.08,0.33,0.53
4.488,-0.47,0.45,0.01,0.65
4.498,-0.10,0.27,-0.10,0.30
4.508,0.18,-0.29,-0.12,0.36
4.518,0.19,-0.48,-0.21,0.56
4.528,0.23,-0.32,-0.07,0.40
4.538,0.11,-0.10,-0.13,0.20
4.548,0.18,-0.23,-0.12,0.31
4.559,0.33,-0.01,-0.03,0.33
4.569,0.45,0.23,0.17,0.54
4.579,0.44,0.26,-0.30,0.59
4.589,-0.07,0.11,0.02,0.14
4.599,-0.38,0.19,0.08,0.43
4.609,-0.51,0.14,0.39,0.65
4.619,-0.36,0.34,-0.21,0.54
4.629,-0.06,0.21,0.01,0.22
4.639,0.30,-0.37,-0.05,0.48
4.649,0.22,-0.50,-0.42,0.68
4.659,0.29,-0.41,0.02,0.50
4.670,0.05,-0.01,-0.10,0.12
4.680,0.08,-0.11,-0.13,0.19
4.690,0.31,0.06,-0.05,0.32
4.700,0.53,0.24,0.21,0.61
4.710,0.43,0.25,-0.38,0.63
4.720,-0.09,0.14,-0.01,0.17
4.730,-0.43,-0.01,0.24,0.49
4.740,-0.50,0.13,0.06,0.52
4.750,-0.37,0.32,-0.01,0.49
4.760,-0.01,0.27,-0.18,0.32
4.770,0.25,-0.29,-0.02,0.39
4.780,0.29,-0.50,-0.30,0.65
4.791,0.16,-0.34,-0.11,0.40
4.800,0.12,-0.11,0.02,0.16
4.811,0.16,-0.02,-0.21,0.26
4.821,0.45,0.06,0.06,0.46
4.831,0.41,0.27,0.14,0.51
4.841,0.24,0.25,-0.39,0.53
4.851,-0.17,0.15,0.13,0.26
4.861,-0.24,-0.14,0.26,0.38
4.871,-0.38,-0.03,0.04,0.38
4.881,-0.27,0.32,-0.07,0.43
4.891,-0.03,0.34,-0.01,0.34
4.901,0.22,-0.20,-0.04,0.30
4.912,0.21,-0.55,-0.38,0.70
4.922,0.14,-0.42,-0.04,0.45
4.932,0.27,-0.12,-0.11,0.31
4.942,0.10,0.16,-0.08,0.20
4.952,0.38,0.09,0.07,0.40
4.962,0.44,0.24,-0.19,0.54
4.972,0.20,0.11,-0.00,0.23
4.982,-0.07,0.02,-0.17,0.18
4.992,-0.38,-0.14,0.25,0.47
5.002,-0.25,0.04,0.21,0.33
5.012,-0.39,0.37,-0.10,0.55
5.022,-0.04,0.26,-0.14,0.29
5.032,0.09,-0.10,-0.17,0.22
5.043,0.26,-0.58,-0.12,0.64
5.053,0.21,-0.41,-0.29,0.54
5.063,-0.05,-0.14,0.45,0.47
5.073,0.60,0.14,-0.61,0.87
5.083,0.18,0.24,0.29,0.41
5.093,0.60,0.20,-0.11,0.65
5.103,0.06,0.03,-0.17,0.18
5.113,-0.23,-0.06,-0.13,0.27
5.123,-0.29,0.02,0.38,0.48
5.133,-0.27,0.07,0.12,0.30
5.143,-0.29,0.35,-0.26,0.53
5.154,0.13,0.05,0.16,0.21
5.164,0.08,-0.13,-0.27,0.31
5.174,0.26,-0.25,-0.14,0.39
5.184,0.78,0.05,0.15,0.80
5.194,0.64,0.59,0.08,0.87
5.204,0.44,0.54,-0.10,0.71
5.214,-0.00,0.01,-0.10,0.10
5.224,-0.06,-0.41,-0.07,0.42
5.234,0.18,-0.64,0.10,0.67
5.244,0.25,-0.23,-0.26,0.43
5.255,-0.13,0.20,0.29,0.37
5.264,-0.29,0.39,0.03,0.48
5.275,-0.38,0.40,0.25,0.61
5.285,-0.26,0.12,-0.25,0.38
5.295,0.00,-0.16,-0.47,0.49
5.305,0.09,-0.32,0.32,0.46
5.315,0.36,-0.32,-0.35,0.60
5.325,0.32,-0.19,-0.04,0.38
5.335,-0.01,0.00,-0.11,0.11
5.345,-0.03,-0.07,-0.28,0.30
5.355,-0.06,-0.29,0.07,0.30
5.365,-0.02,-0.33,-0.22,0.40
5.375,-0.24,0.00,-0.11,0.27
5.385,-0.48,0.69,0.19,0.87
5.396,-0.84,1.18,0.47,1.52
5.406,-0.75,0.79,0.09,1.10
5.416,-0.53,0.12,-0.11,0.55
5.426,-0.03,-0.39,-0.11,0.41
5.436,0.46,-0.38,-0.26,0.65
5.446,0.61,-0.31,-0.11,0.69
5.456,1.39,-0.34,-0.11,1.44
5.466,0.20,-0.23,0.55,0.63
5.476,-0.18,-0.38,0.76,0.87
5.486,-0.67,-0.41,0.33,0.85
5.496,-0.40,-0.38,-0.62,0.83
5.507,-0.43,-0.54,-0.17,0.71
5.517,0.02,-0.42,0.09,0.43
5.527,1.66,0.85,-0.75,2.01
5.537,0.87,1.10,-0.53,1.50
5.547,0.35,0.06,0.42,0.55
5.557,0.48,-0.03,-0.65,0.81
5.567,-0.39,-0.13,-0.19,0.45
5.577,-0.49,-0.46,0.18,0.69
5.587,0.03,-0.59,-0.28,0.66
5.597,0.07,-0.43,-0.32,0.54
5.607,0.59,0.06,-0.37,0.70
5.617,1.14,0.14,-0.17,1.16
5.627,0.55,0.14,-0.41,0.70
5.638,0.07,0.39,-0.24,0.46
5.648,-0.32,0.30,0.23,0.50
5.658,-0.44,0.14,-0.18,0.50
5.668,-0.15,0.03,-0.39,0.42
5.678,0.14,-0.24,-0.05,0.28
5.688,0.18,-0.41,-0.01,0.45
5.698,0.19,-0.37,-0.41,0.58
5.708,-0.06,-0.08,-0.34,0.36
5.718,-0.54,0.50,2.27,2.39
5.728,-0.40,0.74,0.40,0.94
5.739,0.15,0.58,-1.34,1.47
5.749,0.56,0.32,0.25,0.69
5.759,0.32,0.08,0.92,0.98
5.769,-0.25,-0.26,-0.75,0.83
5.779,-0.72,-0.04,-0.19,0.74
5.789,-0.38,0.04,0.91,0.99
5.799,0.24,-0.31,-0.14,0.42
5.809,0.23,-0.26,-0.52,0.63
5.819,0.56,-0.40,0.15,0.70
5.829,-0.00,-0.23,-0.08,0.24
5.839,-0.03,-0.03,-0.40,0.40
5.849,-0.14,0.04,0.23,0.28
5.859,0.12,0.13,-0.13,0.22
5.870,0.74,0.22,-0.54,0.94
5.880,0.50,0.05,0.69,0.85
5.890,0.41,0.12,-0.58,0.72
5.900,-0.46,-0.07,0.16,0.49
5.910,-0.43,-0.06,0.23,0.49
5.920,-0.52,0.06,0.00,0.52
5.930,-0.16,0.38,-0.02,0.41
5.940,0.19,0.24,0.02,0.31
5.950,0.16,-0.26,-0.33,0.45
5.960,0.21,-0.49,-0.13,0.55
5.971,0.22,-0.34,0.01,0.40
5.981,0.12,-0.12,-0.16,0.23
5.991,0.24,0.07,-0.08,0.27
6.001,0.68,0.15,-0.23,0.73
6.011,0.22,0.09,0.27,0.36
6.021,0.18,0.00,-0.31,0.36
6.031,-0.38,0.10,-0.05,0.39
6.041,-0.44,0.29,0.38,0.65
6.051,-0.30,0.31,0.19,0.47
6.061,-0.24,0.17,-0.10,0.31
6.071,0.16,-0.14,-0.29,0.36
6.081,0.20,-0.35,0.01,0.40
6.091,0.29,-0.59,-0.10,0.66
6.102,0.05,-0.25,-0.33,0.41
6.112,0.21,-0.11,0.21,0.32
6.122,0.32,0.27,-0.23,0.48
6.132,0.60,0.34,-0.13,0.70
6.142,0.46,0.03,0.15,0.49
6.152,0.04,-0.06,-0.26,0.27
6.162,-0.42,0.05,0.02,0.42
6.172,-0.62,0.40,0.39,0.84
6.182,-0.44,0.20,-0.00,0.48
6.192,-0.02,0.05,-0.08,0.10
6.202,0.28,-0.21,-0.07,0.35
6.212,0.34,-0.24,-0.20,0.46
6.223,0.24,-0.36,-0.02,0.43
6.232,0.08,-0.25,-0.23,0.35
6.243,0.13,-0.12,-0.12,0.21
6.253,0.34,0.14,0.18,0.41
6.263,0.53,0.22,-0.17,0.60
6.273,0.37,-0.06,-0.04,0.38
6.283,-0.10,0.02,-0.25,0.27
6.293,-0.36,0.09,0.11,0.39
6.303,-0.35,0.49,0.39,0.71
6.313,-0.39,0.34,-0.03,0.52
6.323,-0.20,0.08,-0.30,0.37
6.333,0.23,-0.38,0.18,0.48
6.344,0.22,-0.35,-0.30,0.51
6.354,0.16,-0.40,-0.10,0.44
6.364,0.32,-0.36,0.04,0.48
6.374,0.13,-0.06,-0.15,0.21
6.384,0.40,0.31,0.01,0.51
6.394,0.65,0.28,0.18,0.73
6.404,0.28,0.08,-0.33,0.44
6.414,-0.26,0.00,-0.15,0.30
6.424,-0.68,0.41,0.28,0.85
6.434,-0.40,0.41,0.21,0.61
6.444,-0.23,0.09,-0.05,0.25
6.455,0.17,-0.30,-0.21,0.40
6.465,0.32,-0.51,-0.05,0.61
6.475,0.28,-0.30,-0.22,0.47
6.485,0.08,0.01,-0.18,0.19
6.495,0.09,-0.18,0.07,0.21
6.505,0.13,-0.18,-0.20,0.30
6.515,0.36,0.12,0.00,0.38
6.525,0.61,0.26,0.08,0.67
6.535,0.33,0.04,-0.19,0.38
6.545,-0.40,0.09,-0.07,0.42
6.555,-0.49,0.45,0.29,0.72
6.566,-0.47,0.37,0.29,0.66
6.576,-0.13,0.16,-0.16,0.26
6.586,0.07,-0.26,-0.20,0.34
6.596,0.22,-0.46,-0.19,0.55
6.606,0.24,-0.42,0.11,0.50
6.616,0.14,-0.13,-0.35,0.39
6.626,0.14,-0.25,-0.08,0.30
6.636,0.40,-0.05,-0.07,0.41
6.646,0.43,0.22,0.21,0.53
6.656,0.49,0.27,-0.25,0.61
6.666,0.11,0.06,-0.12,0.18
6.676,-0.44,0.17,0.12,0.48
6.687,-0.76,0.62,0.17,1.00
6.697,-0.38,0.31,0.16,0.51
6.707,0.05,0.02,-0.16,0.17
6.717,0.71,-0.31,-0.11,0.78
6.727,0.00,-0.54,-0.04,0.54
6.737,0.13,-0.50,-0.40,0.65
6.747,0.06,-0.13,0.25,0.28
6.757,-0.05,0.01,-0.02,0.06
6.767,0.32,0.10,-0.72,0.79
6.777,0.67,0.25,0.12,0.73
6.787,0.27,0.31,0.18,0.45
6.798,0.06,0.07,-0.18,0.20
6.808,-0.36,-0.20,0.19,0.46
6.818,-0.51,0.13,0.25,0.58
6.828,-0.40,0.42,-0.05,0.58
6.838,-0.00,0.44,-0.03,0.44
6.848,0.25,-0.20,0.09,0.34
6.858,0.08,-0.47,-0.42,0.63
6.868,0.15,-0.51,0.07,0.54
6.878,0.15,-0.39,0.33,0.53
6.888,0.04,0.01,-0.56,0.56
6.898,0.55,0.20,-0.38,0.70
6.908,0.54,0.37,0.42,0.78
6.918,0.28,0.28,-0.31,0.51
6.929,-0.14,0.06,-0.23,0.28
6.939,-0.25,-0.22,0.46,0.56
6.949,-0.46,-0.10,0.07,0.48
6.959,-0.19,0.30,-0.13,0.38
6.969,-0.22,0.40,0.11,0.48
6.979,0.32,0.07,-0.49,0.59
6.989,0.28,-0.58,0.19,0.67
6.999,0.14,-0.48,-0.39,0.63
7.009,-0.16,-0.29,0.40,0.52
7.019,0.27,-0.05,-0.31,0.41
7.029,0.23,0.41,-0.71,0.85
7.040,0.86,0.33,0.31,0.98
7.049,0.40,0.29,0.07,0.50
7.060,-0.43,-0.14,-0.09,0.46
7.070,-0.16,-0.24,-0.17,0.34
7.080,-0.31,-0.21,0.86,0.94
7.090,-0.49,0.52,-0.58,0.92
7.100,0.01,0.43,0.10,0.45
7.110,0.13,0.03,-0.06,0.15
7.120,0.23,-0.35,-0.24,0.48
7.130,0.80,-0.57,0.89,1.33
7.140,0.07,-0.45,2.78,2.82
7.150,0.69,-0.15,-2.43,2.53
7.160,0.50,-0.15,-0.56,0.76
7.171,0.69,-0.14,0.51,0.87
7.180,0.49,0.36,0.29,0.68
7.191,-0.30,-0.02,-0.62,0.69
7.201,-0.35,0.15,0.01,0.38
7.211,-0.71,0.37,0.53,0.96
7.221,-0.51,0.20,-0.25,0.60
7.231,-0.07,-0.07,-1.12,1.13
7.241,0.09,-0.34,-0.33,0.48
7.251,-0.44,-0.11,-0.44,0.63
7.261,-0.00,-0.13,-0.34,0.37
7.271,-0.35,-0.16,1.28,1.33
7.281,0.52,0.25,-1.69,1.78
7.292,-0.75,0.56,1.22,1.53
7.302,1.31,0.34,-1.55,2.06
7.312,0.29,-0.60,0.73,0.99
7.322,0.03,-0.05,0.15,0.17
7.332,-0.36,-0.14,-0.53,0.66
7.342,-0.31,1.05,-1.42,1.79
7.352,-0.31,1.55,-1.11,1.93
7.362,-0.14,2.06,-2.82,3.49
7.372,-0.40,1.33,-1.26,1.87
7.382,1.78,-4.10,6.23,7.67
7.393,-1.28,1.69,-1.01,2.35
7.403,1.46,-0.55,2.15,2.66
7.413,-0.80,-1.02,-2.01,2.39
7.423,0.66,-1.41,1.23,1.98
7.433,0.54,-0.83,-0.39,1.07
7.443,-0.33,0.14,-0.35,0.50
7.453,0.44,0.16,0.17,0.49
7.463,-0.46,0.05,0.31,0.56
7.473,-0.35,0.33,-0.26,0.55
7.483,-0.14,0.29,0.45,0.55
7.493,-0.07,0.09,-0.06,0.13
7.503,0.13,0.05,-0.58,0.60
7.513,0.24,-0.30,0.48,0.61
7.524,0.09,-0.11,-0.72,0.73
7.534,0.03,-0.50,0.34,0.60
7.544,0.36,-0.10,-0.47,0.60
7.554,0.34,0.10,0.11,0.38
7.564,0.51,0.44,-0.10,0.69
7.574,0.37,0.02,0.26,0.45
7.584,-0.11,-0.02,-0.53,0.54
7.594,-0.52,-0.10,0.43,0.68
7.604,-0.32,0.25,0.21,0.45
7.614,-0.43,0.33,-0.14,0.56
7.624,0.03,0.01,0.22,0.22
7.634,0.03,-0.34,-0.36,0.50
7.645,0.15,-0.45,-0.10,0.49
7.655,0.30,-0.09,-0.03,0.31
7.665,0.15,-0.14,0.35,0.41
7.675,0.22,-0.01,-0.66,0.69
7.685,0.40,0.37,-0.06,0.55
7.695,0.45,0.48,-0.09,0.66
7.705,0.40,-0.19,0.28,0.52
7.715,-0.32,0.06,-0.39,0.51
7.725,-0.33,-0.43,0.41,0.67
7.735,-0.38,-0.12,0.07,0.41
7.746,-0.23,0.41,-0.06,0.48
7.755,0.11,0.42,-0.03,0.43
7.766,0.10,-0.10,-0.19,0.24
7.776,-0.07,-0.26,-0.26,0.38
7.786,0.10,-0.34,0.01,0.35
7.796,-0.03,-0.18,0.24,0.30
7.806,0.34,-0.19,-0.66,0.77
7.816,0.50,0.11,-0.02,0.51
7.826,0.63,0.28,-0.16,0.71
7.836,0.39,-0.00,0.30,0.49
7.846,-0.15,0.14,-0.42,0.46
7.856,-0.67,0.09,0.47,0.82
7.866,-0.41,0.07,-0.04,0.42
7.877,-0.45,0.31,0.12,0.56
7.887,0.15,0.36,-0.17,0.43
7.897,0.20,-0.31,-0.01,0.37
7.907,0.19,-0.50,-0.37,0.64
7.917,0.16,-0.43,0.08,0.47
7.927,-0.08,-0.16,0.11,0.21
7.937,0.36,-0.04,-0.33,0.49
7.947,0.54,0.33,-0.41,0.75
7.957,0.49,0.31,0.06,0.58
7.967,0.24,0.08,0.38,0.46
7.977,-0.17,-0.01,-0.45,0.48
7.987,-0.75,0.13,0.30,0.82
7.998,-0.32,-0.05,0.33,0.46
8.008,-0.23,0.07,-0.20,0.31
8.018,0.13,0.22,-0.08,0.27
8.028,0.30,-0.13,0.06,0.33
8.038,0.08,-0.43,-0.34,0.55
8.048,-0.01,-0.26,-0.05,0.27
8.058,-0.02,-0.13,0.31,0.34
8.068,0.23,0.01,-0.47,0.52
8.078,0.86,-0.01,-0.48,0.98
8.088,0.50,0.12,0.46,0.69
8.098,0.21,-0.03,-0.20,0.30
8.108,-0.20,-0.12,-0.12,0.26
8.118,-0.63,0.31,0.15,0.72
8.129,-0.52,0.63,0.34,0.88
8.139,-0.33,0.37,-0.04,0.49
8.149,0.08,-0.10,-0.17,0.21
8.159,0.17,-0.29,-0.19,0.39
8.169,0.29,-0.55,-0.01,0.62
8.179,0.22,-0.45,-0.28,0.57
8.189,0.16,-0.27,0.19,0.36
8.199,0.32,0.06,-0.11,0.35
8.209,0.62,0.34,-0.58,0.91
8.219,0.32,0.04,0.78,0.85
8.230,0.17,0.08,-0.73,0.76
8.240,-0.51,0.10,0.15,0.54
8.250,-0.44,0.51,0.28,0.73
8.260,-0.49,0.45,0.11,0.68
8.270,-0.06,-0.04,-0.07,0.11
8.280,0.19,-0.33,-0.19,0.43
8.290,0.31,-0.33,-0.16,0.48
8.300,0.23,-0.30,-0.07,0.38
8.310,0.06,-0.27,-0.14,0.31
8.320,0.08,-0.14,-0.16,0.22
8.330,0.31,0.08,0.09,0.34
8.340,0.56,0.32,-0.12,0.65
8.351,0.43,0.04,-0.04,0.44
8.361,0.12,-0.00,-0.08,0.14
8.371,-0.41,-0.04,-0.10,0.43
8.381,-0.40,0.26,0.34,0.58
8.391,-0.34,0.44,0.14,0.57
8.401,-0.27,0.30,-0.15,0.43
8.411,0.06,-0.15,-0.09,0.19
8.421,0.21,-0.33,-0.18,0.43
8.431,0.20,-0.31,-0.18,0.41
8.441,0.29,-0.48,0.01,0.56
8.451,0.17,-0.22,-0.28,0.40
8.461,0.44,0.07,0.10,0.46
8.471,0.54,0.35,0.08,0.65
8.482,0.20,0.08,-0.21,0.30
8.492,-0.05,0.00,-0.22,0.22
8.502,-0.56,0.21,0.27,0.65
8.512,-0.45,0.48,0.21,0.69
8.522,-0.32,0.28,0.13,0.44
8.532,0.07,-0.03,-0.31,0.32
8.542,0.19,-0.48,-0.04,0.52
8.552,0.28,-0.45,-0.13,0.55
8.562,0.04,-0.10,-0.19,0.22
8.573,0.11,-0.18,-0.01,0.21
8.583,0.12,-0.15,-0.12,0.23
8.592,0.44,0.10,-0.04,0.45
8.602,0.58,0.32,0.13,0.68
8.613,0.36,0.18,-0.30,0.50
8.623,-0.23,0.00,-0.11,0.26
8.633,-0.40,-0.00,0.29,0.49
8.643,-0.43,0.23,0.13,0.50
8.653,-0.32,0.46,-0.10,0.57
8.663,0.12,0.03,0.02,0.12
8.673,0.07,-0.37,-0.31,0.48
8.683,0.21,-0.50,-0.07,0.54
8.693,0.13,-0.21,-0.14,0.28
8.704,0.15,-0.20,-0.08,0.26
8.713,0.30,-0.22,-0.12,0.39
8.724,0.48,0.10,0.07,0.50
8.734,0.43,0.32,-0.12,0.55
8.744,0.13,0.12,0.12,0.21
8.754,-0.26,0.10,-0.20,0.34
8.764,-0.70,0.46,0.21,0.86
8.774,-0.32,0.29,0.35,0.56
8.784,-0.21,0.27,-0.21,0.40
8.794,0.21,-0.31,-0.06,0.38
8.804,0.35,-0.55,-0.17,0.67
8.815,0.18,-0.46,-0.17,0.52
8.825,0.02,-0.14,-0.10,0.17
8.835,-0.04,0.07,-0.09,0.12
8.845,0.26,-0.09,-0.05,0.28
8.855,0.42,0.11,0.06,0.44
8.865,0.51,0.28,-0.08,0.59
8.875,0.28,0.19,-0.17,0.37
8.885,-0.31,0.13,0.02,0.34
8.895,-0.57,0.05,0.31,0.66
8.905,-0.42,0.17,-0.02,0.45
8.915,-0.21,0.38,-0.17,0.46
8.925,0.15,-0.03,0.04,0.16
8.935,0.23,-0.51,-0.24,0.61
8.946,0.14,-0.47,-0.27,0.57
8.956,0.16,-0.20,0.10,0.28
8.966,0.08,0.02,-0.13,0.16
8.976,0.25,-0.03,-0.14,0.29
8.986,0.56,0.19,-0.01,0.59
8.996,0.35,0.30,0.05,0.46
9.006,0.14,0.17,-0.22,0.31
9.016,-0.39,-0.02,-0.00,0.39
9.026,-0.38,-0.12,0.35,0.53
9.036,-0.33,0.15,0.01,0.37
9.046,-0.14,0.38,-0.22,0.46
9.056,0.11,0.08,0.05,0.14
9.067,0.30,-0.44,-0.19,0.56
9.077,0.04,-0.50,-0.24,0.56
9.087,0.11,-0.33,0.02,0.35
9.097,-0.00,-0.07,0.17,0.19
9.107,0.35,0.21,-0.44,0.60
9.117,0.74,0.24,-0.07,0.78
9.127,0.27,0.25,0.26,0.45
9.137,0.11,0.08,-0.36,0.38
9.147,-0.46,-0.12,0.00,0.48
9.157,-0.39,-0.18,0.47,0.64
9.168,-0.33,0.19,-0.13,0.41
9.178,-0.16,0.37,-0.11,0.42
9.188,0.16,0.09,0.09,0.21
9.198,0.08,-0.28,-0.32,0.43
9.208,0.13,-0.52,-0.09,0.55
9.218,0.18,-0.28,0.01,0.33
9.228,0.11,-0.06,0.19,0.22
9.238,0.40,0.40,-0.58,0.81
9.248,0.69,0.25,0.07,0.74
9.258,0.12,0.10,0.08,0.18
9.268,0.07,-0.13,-0.16,0.22
9.278,-0.40,-0.10,-0.14,0.44
9.288,-0.39,-0.07,0.54,0.67
9.299,-0.21,0.18,-0.06,0.28
9.308,-0.21,0.38,-0.16,0.47
9.319,0.22,0.06,0.07,0.24
9.329,0.09,-0.18,-0.32,0.37
9.339,0.08,-0.51,-0.07,0.52
9.349,0.04,-0.33,-0.12,0.35
9.359,0.05,-0.10,0.16,0.19
9.369,0.50,0.45,-0.51,0.84
9.379,0.65,0.46,-0.06,0.80
9.389,0.24,-0.05,0.29,0.38
9.399,-0.11,-0.15,-0.27,0.33
9.410,-0.33,-0.21,-0.11,0.41
9.420,-0.23,0.04,0.52,0.57
9.430,-0.28,0.28,-0.04,0.40
9.440,-0.24,0.28,-0.16,0.40
9.450,0.13,-0.07,0.07,0.16
9.460,0.05,-0.16,-0.31,0.36
9.470,0.10,-0.31,0.00,0.32
9.480,0.27,-0.47,0.05,0.55
9.490,0.10,-0.17,-0.05,0.20
9.500,0.53,0.45,-0.47,0.84
9.510,0.55,0.53,-0.06,0.76
9.520,0.03,0.09,0.52,0.53
9.531,-0.04,-0.17,-0.51,0.53
9.541,-0.48,-0.30,0.08,0.58
9.551,-0.19,-0.01,0.42,0.46
9.561,-0.20,0.31,0.02,0.37
9.571,0.02,0.16,-0.10,0.19
9.581,0.02,-0.08,-0.15,0.17
9.591,0.04,-0.20,-0.16,0.26
9.601,0.04,-0.16,-0.08,0.18
9.611,0.07,-0.32,0.11,0.35
9.621,0.15,-0.20,-0.14,0.29
9.631,0.56,0.20,-0.46,0.75
9.641,0.52,0.38,0.19,0.68
9.651,0.33,0.19,0.13,0.40
9.662,-0.21,-0.05,-0.23,0.32
9.672,-0.31,-0.29,-0.04,0.43
9.682,-0.30,-0.10,0.56,0.64
9.692,-0.22,0.43,-0.18,0.51
9.702,-0.20,0.32,0.00,0.37
9.712,0.07,-0.12,-0.03,0.14
9.722,-0.02,-0.32,-0.26,0.41
9.732,0.19,-0.26,-0.15,0.35
9.742,0.29,-0.15,0.08,0.34
9.752,0.20,-0.31,0.08,0.38
9.762,0.40,0.06,-0.62,0.75
9.773,0.50,0.39,-0.02,0.63
9.783,0.33,0.06,0.36,0.50
9.793,0.04,-0.02,-0.50,0.50
9.803,-0.54,0.01,0.25,0.60
9.813,-0.48,0.48,0.31,0.75
9.823,-0.34,0.33,-0.02,0.48
9.833,0.04,-0.04,0.07,0.09
9.843,0.25,-0.46,-0.24,0.57
9.853,0.08,-0.40,-0.26,0.48
9.863,0.19,-0.26,0.05,0.33
9.873,-0.00,0.01,-0.17,0.17
9.884,0.10,-0.13,0.07,0.18
9.894,0.51,0.03,-0.37,0.63
9.904,0.52,0.15,0.09,0.55
9.914,0.38,0.19,-0.11,0.44
9.924,0.06,-0.00,0.09,0.10
9.934,-0.66,0.16,-0.16,0.70
9.944,-0.49,0.31,0.27,0.64
9.954,-0.19,0.16,0.26,0.36
9.964,-0.13,0.27,-0.26,0.40
9.974,0.12,-0.23,-0.06,0.26
9.984,0.27,-0.60,-0.16,0.68
9.994,0.01,-0.37,-0.20,0.42
10.004,0.16,-0.08,0.05,0.19
10.015,0.22,0.04,0.03,0.22
10.025,0.42,0.05,-0.41,0.59
10.035,0.45,0.21,0.16,0.52
10.045,0.26,0.20,-0.03,0.33
10.055,0.02,0.12,-0.16,0.20
10.065,-0.51,0.06,0.11,0.53
10.075,-0.30,-0.15,0.31,0.45
10.085,-0.35,0.17,-0.08,0.40
10.095,-0.09,0.38,-0.01,0.39
10.105,0.19,-0.07,-0.02,0.20
10.116,0.14,-0.51,-0.25,0.59
10.126,0.11,-0.51,-0.13,0.54
10.136,0.16,-0.14,-0.08,0.23
10.146,0.11,0.08,0.03,0.14
10.156,0.42,0.06,-0.19,0.46
10.166,0.50,0.13,0.14,0.54
10.176,0.34,0.14,-0.29,0.47
10.186,0.01,-0.01,0.05,0.05
10.196,-0.36,0.19,0.01,0.41
10.206,-0.45,0.15,0.32,0.57
10.216,-0.44,0.25,-0.05,0.51
10.226,-0.11,0.14,-0.15,0.24
10.236,0.13,-0.14,-0.09,0.22
10.246,0.24,-0.39,-0.24,0.52
10.257,0.21,-0.47,-0.03,0.51
10.267,0.20,-0.23,-0.27,0.40
10.277,0.14,-0.01,0.04,0.15
10.287,0.49,0.29,-0.05,0.58
10.297,0.41,0.17,0.19,0.48
10.307,0.24,0.07,-0.46,0.53
10.317,-0.21,0.01,0.02,0.21
10.327,-0.44,0.21,0.23,0.54
10.337,-0.49,0.25,0.40,0.67
10.347,-0.43,0.42,-0.33,0.68
10.358,0.27,-0.24,0.11,0.38
10.368,0.24,-0.33,-0.30,0.51
10.378,0.22,-0.37,-0.06,0.43
10.388,0.11,-0.38,-0.07,0.40
10.398,-0.02,-0.13,-0.26,0.29
10.408,0.32,0.06,0.04,0.33
10.418,0.47,0.25,0.17,0.56
10.428,0.47,0.15,-0.28,0.56
10.438,0.19,0.02,-0.09,0.21
10.448,-0.23,0.00,-0.02,0.23
10.458,-0.45,0.17,0.21,0.52
10.468,-0.44,0.34,0.25,0.61
10.479,-0.17,0.27,-0.10,0.33
10.488,-0.02,-0.06,-0.24,0.25
10.499,0.21,-0.36,-0.06,0.42
10.509,0.15,-0.32,-0.08,0.36
10.519,0.18,-0.32,-0.31,0.48
10.529,0.16,-0.23,0.00,0.28
10.539,0.40,0.06,-0.12,0.42
10.549,0.46,0.34,0.10,0.58
10.559,0.37,0.25,-0.10,0.46
10.569,0.00,-0.05,-0.12,0.13
10.579,-0.38,-0.10,-0.10,0.41
10.589,-0.40,0.22,0.32,0.56
10.599,-0.35,0.45,0.26,0.63
10.609,-0.02,0.18,-0.19,0.26
10.620,0.03,-0.17,-0.24,0.29
10.630,0.28,-0.44,0.07,0.53
10.640,0.10,-0.19,-0.28,0.36
10.650,0.11,-0.28,-0.09,0.32
10.660,0.13,-0.24,-0.09,0.29
10.670,0.36,0.02,-0.09,0.37
10.680,0.52,0.30,0.16,0.62
10.690,0.44,0.27,-0.22,0.57
10.700,-0.03,0.01,-0.17,0.17
10.710,-0.40,-0.04,0.06,0.40
10.721,-0.46,0.11,0.31,0.57
10.731,-0.43,0.47,-0.07,0.64
10.741,-0.05,0.19,-0.01,0.20
10.751,0.16,-0.27,-0.18,0.36
10.761,0.16,-0.39,-0.20,0.47
10.771,0.12,-0.27,-0.08,0.31
10.781,0.08,-0.15,-0.12,0.21
10.791,0.21,-0.20,-0.07,0.30
10.801,0.39,0.06,0.01,0.40
10.811,0.53,0.30,0.00,0.61
10.821,0.38,0.22,-0.14,0.46
10.832,-0.22,0.10,-0.14,0.28
10.841,-0.48,-0.02,0.20,0.53
10.852,-0.39,0.14,0.18,0.45
10.862,-0.38,0.44,-0.08,0.59
10.872,0.09,0.14,0.11,0.20
10.882,0.16,-0.39,-0.21,0.47
10.892,0.20,-0.45,-0.29,0.57
10.902,0.13,-0.25,0.05,0.29
10.912,0.06,-0.05,-0.15,0.17
10.922,0.11,-0.09,-0.26,0.30
10.932,0.44,0.12,0.23,0.52
10.942,0.47,0.26,0.01,0.54
10.952,0.34,0.24,-0.47,0.63
10.963,-0.16,0.00,0.22,0.27
10.973,-0.42,-0.12,0.16,0.46
10.983,-0.48,0.09,0.13,0.51
10.993,-0.26,0.47,-0.12,0.55
11.003,-0.04,0.29,0.07,0.31
11.013,0.19,-0.32,-0.26,0.46
11.023,0.20,-0.59,-0.21,0.65
11.033,0.24,-0.32,-0.11,0.42
11.043,0.11,-0.00,-0.04,0.12
11.053,0.22,0.02,-0.13,0.26
11.064,0.39,0.04,0.14,0.42
11.073,0.39,0.21,-0.10,0.45
11.084,0.17,0.17,-0.20,0.31
11.094,-0.06,0.07,-0.07,0.11
11.104,-0.39,-0.21,0.36,0.57
11.114,-0.33,-0.01,0.01,0.33
11.124,-0.29,0.40,-0.09,0.50
11.134,0.03,0.33,0.07,0.34
11.144,0.03,-0.13,-0.23,0.27
11.154,0.25,-0.57,-0.02,0.62
11.164,0.07,-0.35,-0.19,0.40
11.174,0.06,-0.04,-0.13,0.15
11.184,0.25,0.11,-0.04,0.28
11.195,0.58,0.05,0.19,0.61
11.205,0.45,0.21,-0.20,0.53
11.215,0.18,0.10,-0.13,0.24
11.225,-0.18,0.05,0.02,0.19
11.235,-0.41,-0.16,0.17,0.47
11.245,-0.36,0.00,0.20,0.41
11.255,-0.34,0.33,-0.08,0.48
11.265,-0.02,0.28,-0.18,0.33
11.275,0.13,-0.10,-0.04,0.17
11.285,0.20,-0.49,-0.18,0.57
11.295,0.04,-0.34,-0.18,0.39
11.306,0.36,-0.09,0.01,0.37
11.316,0.30,0.21,-0.13,0.39
11.326,0.46,0.20,0.09,0.51
11.336,0.32,0.07,-0.12,0.35
11.346,-0.05,-0.02,-0.28,0.28
11.356,-0.13,-0.12,-0.00,0.18
11.366,-0.34,-0.00,0.18,0.38
11.376,-0.21,0.09,0.17,0.28
11.386,-0.28,0.37,-0.13,0.48
11.396,-0.02,0.20,-0.04,0.20
11.406,0.09,-0.06,-0.26,0.28
11.416,0.15,-0.39,-0.05,0.42
11.427,0.19,-0.40,-0.15,0.47
11.437,0.10,-0.09,-0.14,0.19
11.447,0.35,0.23,0.08,0.43
11.457,0.54,0.34,0.10,0.64
11.467,0.42,-0.02,-0.23,0.48
11.477,-0.01,-0.12,-0.23,0.26
11.487,-0.22,-0.09,0.01,0.24
11.497,-0.33,0.07,0.33,0.48
11.507,-0.29,0.17,0.12,0.35
11.517,-0.20,0.30,-0.20,0.41
11.527,-0.06,0.06,0.03,0.08
11.537,0.12,-0.10,-0.22,0.27
11.547,0.10,-0.19,-0.14,0.26
11.558,0.38,-0.46,0.01,0.60
11.568,0.12,-0.20,-0.27,0.36
11.578,0.38,0.13,0.17,0.43
11.588,0.42,0.39,0.05,0.57
11.598,0.16,0.31,-0.23,0.42
11.608,0.10,-0.19,0.01,0.22
11.618,-0.21,-0.22,-0.05,0.31
11.628,-0.31,-0.00,0.12,0.33
11.638,-0.25,0.33,0.28,0.51
11.648,-0.17,0.29,-0.09,0.35
11.658,-0.03,0.02,-0.20,0.20
11.669,0.16,-0.29,-0.06,0.33
11.679,0.16,-0.22,-0.21,0.34
11.689,0.12,-0.20,-0.13,0.26
11.699,0.23,-0.18,-0.14,0.32
11.709,0.15,-0.00,0.44,0.46
11.719,0.63,0.35,-0.80,1.07
11.729,0.28,0.36,0.11,0.47
11.739,0.22,-0.19,0.13,0.32
11.749,-0.29,-0.25,-0.39,0.55
11.759,-0.34,-0.17,0.50,0.63
11.770,-0.30,0.44,0.09,0.55
11.780,-0.36,0.48,-0.13,0.62
11.790,0.04,-0.01,-0.03,0.06
11.800,0.05,-0.37,-0.14,0.40
11.810,0.19,-0.38,-0.13,0.44
11.820,0.16,-0.06,-0.23,0.29
11.830,0.21,-0.21,0.06,0.30
11.840,0.33,0.04,-0.24,0.41
11.850,0.47,0.17,0.32,0.60
11.860,0.45,0.29,-0.32,0.62
11.870,-0.10,0.12,-0.23,0.28
11.880,-0.27,-0.29,0.21,0.45
11.890,-0.35,-0.13,0.11,0.39
11.901,-0.30,0.29,0.08,0.42
11.911,-0.21,0.58,-0.03,0.62
11.921,0.03,0.03,-0.05,0.07
11.931,0.13,-0.45,-0.23,0.52
11.941,0.10,-0.44,-0.19,0.49
11.951,0.09,-0.15,-0.04,0.18
11.961,0.12,0.01,-0.13,0.18
11.971,0.42,-0.05,-0.08,0.43
11.981,0.38,0.16,0.25,0.48
11.991,0.35,0.21,-0.18,0.45
12.001,0.17,0.18,-0.30,0.39
12.011,-0.28,-0.12,0.17,0.35
12.022,-0.26,-0.13,0.21,0.36
12.032,-0.50,0.18,0.12,0.54
12.042,-0.24,0.44,-0.06,0.51
12.052,-0.06,0.30,-0.05,0.31
12.062,0.17,-0.49,-0.13,0.53
12.072,0.05,-0.54,-0.44,0.70
12.082,0.33,-0.20,-0.05,0.39
12.092,0.14,0.11,0.18,0.26
12.102,0.36,0.02,-0.25,0.44
12.112,0.41,0.08,0.07,0.43
12.122,0.32,0.21,-0.02,0.39
12.132,0.24,0.15,-0.36,0.46
12.143,-0.38,0.01,0.27,0.47
12.153,-0.34,-0.16,0.26,0.46
12.163,-0.44,0.14,-0.06,0.47
12.173,-0.15,0.37,0.03,0.40
12.183,0.07,0.19,-0.09,0.22
12.193,0.16,-0.40,-0.15,0.46
12.203,0.14,-0.55,-0.23,0.61
12.213,0.07,-0.31,-0.08,0.32
12.223,0.14,0.07,-0.15,0.21
12.233,0.33,0.12,0.04,0.36
12.244,0.51,0.01,0.06,0.51
12.254,0.37,0.19,-0.27,0.50
12.264,0.12,0.10,-0.14,0.21
12.274,-0.28,0.11,-0.01,0.31
12.284,-0.39,-0.02,0.30,0.49
12.294,-0.54,0.22,0.05,0.58
12.304,-0.25,0.27,-0.07,0.37
12.314,0.09,-0.02,-0.06,0.11
12.324,0.20,-0.25,-0.32,0.45
12.334,0.20,-0.55,0.06,0.59
12.344,0.14,-0.31,-0.29,0.45
12.354,0.22,-0.04,-0.06,0.24
12.364,0.35,0.28,0.10,0.46
12.374,0.43,0.19,0.01,0.47
12.385,0.38,0.09,-0.28,0.48
12.395,-0.14,0.05,-0.04,0.15
12.404,-0.25,0.02,-0.09,0.27
12.415,-0.43,0.09,0.37,0.58
12.425,-0.22,0.20,0.12,0.32
12.435,-0.24,0.30,-0.32,0.50
12.445,0.08,-0.12,-0.02,0.15
12.455,0.25,-0.32,-0.15,0.44
12.465,0.13,-0.46,-0.06,0.48
12.475,0.08,-0.30,-0.16,0.35
12.485,0.23,-0.02,-0.10,0.25
12.495,0.39,0.32,0.27,0.57
12.506,0.41,0.43,-0.84,1.03
12.516,0.29,-0.00,0.45,0.54
12.526,-0.04,-0.18,-0.26,0.32
12.536,-0.40,-0.06,-0.31,0.51
